AX,AY,AZ,GX,GY,GZ,Output
-0.058044434,1.9989777,11.165207,0.97068787,-0.07891846,-0.21556091,1
-0.7092743,2.003769,8.955353,0.93766785,-0.07891846,-0.1910553,1
-1.8106079,2.439499,8.012039,0.76828,-0.75323486,-0.048309326,1
-1.7914581,2.724411,8.6082,0.6234131,-1.2485809,0.06034851,1
-1.0037537,2.961441,9.891495,0.48492432,-1.5074463,0.15515137,1
-0.3764801,2.9542542,10.442154,0.39544678,-1.4637604,0.17007446,1
0.44233704,2.8441315,11.241821,0.2527008,-1.2379303,0.17007446,1
1.2659454,3.0260925,11.976837,0.21008301,-1.0376587,0.16687012,1
1.8597107,3.3899994,12.3647,0.20263672,-0.78518677,0.14237976,1
2.300232,3.4857788,12.28569,0.2015686,-0.44537354,0.07846069,1
2.3768463,3.447464,11.703903,0.20368958,-0.19078064,0.009216309,1
2.051239,3.337326,10.868332,0.18664551,0.057434082,-0.106903076,1
1.1007385,3.0117188,10.138092,0.16748047,0.13412476,-0.20277405,1
0.2819214,2.8321533,9.664047,0.17706299,0.085128784,-0.20703125,1
-0.0029907227,2.8632812,9.443771,0.17066956,0.046783447,-0.1910553,1
0.5404968,2.7028656,8.031189,0.13871765,-0.14602661,-0.13139343,1
2.15419,2.6382294,8.249069,0.11846924,-0.773468,-0.28053284,1
1.8453369,3.1457977,9.127747,0.20368958,-0.914093,-0.47761536,1
1.5939484,3.1769257,8.885925,0.2761383,-0.94711304,-0.60757446,1
1.3138275,3.4043732,9.225906,0.36242676,-1.0227509,-0.64912415,1
1.4000244,3.629425,9.446167,0.44444275,-1.1005096,-0.62461853,1
1.32341,3.605484,9.5898285,0.49238586,-1.1878662,-0.5990448,1
1.2707367,3.416336,9.671219,0.49983215,-1.2059784,-0.5713501,1
1.4239655,3.028473,9.687988,0.45829773,-1.0834656,-0.53619385,1
1.407196,2.743576,9.721497,0.40821838,-0.914093,-0.5031738,1
1.5149384,2.537674,9.616165,0.3272705,-0.6360626,-0.4509735,1
1.5340881,2.5496368,9.240265,0.21115112,-0.23231506,-0.38705444,1
1.4742432,2.6430206,9.268997,0.024734497,0.39512634,-0.29971313,1
1.3521271,2.7627258,8.660873,-0.028533936,0.5549164,-0.25602722,1
1.1151123,3.0069275,8.361603,-0.071136475,0.6880646,-0.1953125,1
0.7823181,3.1386108,7.983307,-0.09031677,0.7541199,-0.095184326,1
0.5237427,3.526474,7.6170044,-0.11907959,0.56663513,-0.04084778,1
0.35853577,3.8137817,7.727127,-0.094573975,0.38659668,-0.017410278,1
0.21009827,4.019684,7.916275,-0.05303955,0.19911194,0.016677856,1
0.5237427,4.012497,7.990494,-0.028533936,0.07234192,0.028396606,1
0.77033997,3.854477,7.806137,-0.018951416,-0.08956909,0.009216309,1
0.952301,3.7539215,7.679245,-0.087127686,-0.16201782,-0.015289307,1
1.0648346,3.7180176,7.794174,-0.15956116,-0.14283752,-0.025939941,1
1.32341,3.5456238,7.9617615,-0.2692871,-0.0544281,-0.032333374,1
1.517334,3.3469086,7.79657,-0.41203308,-0.021392822,-0.04298401,1
1.2731323,3.320572,7.923462,-0.5505066,-0.09489441,-0.09197998,1
0.6602173,3.4594421,8.069504,-0.7017822,-0.19610596,-0.1356659,1
0.5476837,3.7347717,8.809311,-0.86901855,-0.20462036,-0.116485596,1
1.0935669,4.017288,9.158859,-0.95957947,-0.07359314,-0.09837341,1
1.0121613,4.048416,10.241043,-1.0714264,0.2193451,-0.060028076,1
1.2324219,3.6557617,11.220276,-1.0607758,0.37487793,-0.020614624,1
1.3808594,3.131424,12.113312,-0.9467926,0.5122986,-0.032333374,1
1.1151123,2.8130035,12.376678,-0.8072357,0.6369324,-0.048309326,1
1.1582031,2.9758148,12.367096,-0.5451813,0.8393402,-0.08239746,1
1.2970734,3.258316,11.663193,-0.348114,0.97462463,-0.116485596,1
1.2444,3.794632,10.91861,-0.23092651,1.1035156,-0.15164185,1
0.97384644,4.2878265,9.788544,-0.22241211,1.1695709,-0.20916748,1
0.5548706,4.146576,9.573059,-0.27140808,1.0854187,-0.26242065,1
-0.27592468,3.5073242,10.152466,-0.25543213,0.9075165,-0.25709534,1
-1.1450195,2.8656769,11.093384,-0.092453,0.77648926,-0.13352966,1
-1.1138916,2.5783691,10.887482,0.20475769,0.5623627,0.041168213,1
-1.2838745,2.5783691,10.451736,0.5296631,0.07447815,0.1572876,1
-1.1282654,2.6047058,9.819672,0.7565613,-0.44111633,0.20523071,1
-0.32141113,2.7363892,9.324066,0.7906494,-0.84484863,0.21800232,1
0.6434479,2.9398956,9.546722,0.6500397,-1.009964,0.20628357,1
1.6442261,2.9375,10.830017,0.44657898,-0.8373871,0.17114258,1
1.8956146,2.9758148,11.665588,0.30490112,-0.5124817,0.12213135,1
0.9211731,3.2080383,12.62088,0.0801239,0.11708069,0.017745972,1
0.4543152,3.6150665,13.0733795,-0.02746582,0.5229492,-0.06854248,1
-0.759552,2.8944092,12.446106,-0.071136475,0.788208,-0.14099121,1
-0.5751953,3.2391663,10.990433,-0.118011475,0.7594452,-0.093048096,1
0.21728516,4.3500824,10.0112,-0.26075745,0.45690918,-0.12606812,1
0.7823181,4.2950134,11.294495,-0.42694092,0.1927185,-0.22727966,1
0.26516724,2.7651215,12.60173,-0.4961853,-0.020339966,-0.27520752,1
-0.601532,1.5368958,14.119644,-0.42907715,-0.46774292,-0.26029968,1
-0.79307556,1.0412903,16.003891,-0.17979431,-0.9375305,-0.20489502,1
-0.6685791,1.1011505,16.865799,0.13871765,-1.040863,-0.14204407,1
-0.28311157,1.704483,16.011078,0.3592224,-0.6392517,-0.11116028,1
-1.2024841,2.2838898,13.585739,0.4252777,-0.088516235,-0.06854248,1
-2.6988525,3.047638,10.482864,0.32939148,0.31628418,0.045440674,1
-3.2088165,3.2487488,9.345612,0.16960144,0.42388916,0.24571228,1
-3.6134338,3.478592,8.699173,0.011947632,0.43666077,0.482193,1
-2.7132263,3.4522552,8.66806,-0.06262207,0.32481384,0.6590271,1
-0.9079895,2.6861115,8.58905,-0.063690186,-0.012878418,0.6622162,1
-0.50816345,2.1498108,9.388702,0.0012969971,-0.3409729,0.5983124,1
-0.7308197,1.8529205,10.549896,0.19624329,-0.46348572,0.62280273,1
-0.7212372,1.8433533,9.472504,0.33366394,-0.5870514,0.67074585,1
-0.0843811,1.972641,8.948181,0.5680084,-0.87254333,0.68460083,1
0.5883789,1.9893951,8.210754,0.66282654,-0.94818115,0.65689087,1
0.9355469,2.0420685,7.557144,0.71502686,-1.0131531,0.6036377,1
1.2898865,2.0660095,6.9418335,0.72779846,-1.0035706,0.56422424,1
1.735199,2.3605042,6.113434,0.6660156,-0.97906494,0.48965454,1
1.790268,2.5687866,6.108658,0.5573578,-0.90130615,0.41508484,1
1.7088776,2.585556,6.132599,0.3826599,-0.6946411,0.3053589,1
1.462265,2.6430206,6.4246826,0.19197083,-0.470932,0.20628357,1
0.84695435,2.1498108,7.9138794,0.03112793,-0.24191284,0.15089417,1
0.5859833,1.5727997,9.158859,0.032180786,-0.055480957,0.16900635,1
0.631485,1.3501434,9.565872,0.09184265,0.20657349,0.22227478,1
0.94033813,1.4123993,9.393494,0.27293396,0.7306824,0.31814575,1
0.45669556,1.2400055,7.722351,0.3592224,0.85424805,0.35009766,1
0.47825623,2.2551575,7.315323,0.39012146,0.7722168,0.38739014,1
1.2731323,3.258316,7.4350433,0.31874084,0.71043396,0.29577637,1
1.0169525,3.186493,6.999298,0.19729614,0.4206848,0.22120667,1
0.7296448,2.7746887,7.741501,0.067337036,0.0052337646,0.18286133,1
0.46148682,2.1258698,9.0224,-0.040252686,-0.27493286,0.19458008,1
0.34417725,1.2136688,11.083801,-0.17021179,-0.46881104,0.29789734,1
0.7751312,0.95988464,12.422165,-0.27140808,-0.48797607,0.4736786,1
1.5197296,1.1514282,13.159576,-0.32681274,-0.35057068,0.5631561,1
2.3265686,1.4411316,13.837128,-0.34490967,-0.20355225,0.59617615,1
3.0184937,1.680542,14.110077,-0.301239,-0.053359985,0.56848145,1
3.6984558,1.9774323,14.112473,-0.22880554,0.11495972,0.4736786,1
3.9546356,2.4658356,13.66954,-0.15209961,0.29286194,0.31388855,1
3.5883179,2.827362,12.766922,-0.10417175,0.43666077,0.13066101,1
2.8724518,2.8441315,11.617706,-0.12440491,0.60284424,-0.017410278,1
2.1398315,2.8441315,10.76059,-0.21388245,0.78926086,-0.10902405,1
1.3353729,2.8489075,10.171616,-0.3246765,0.94799805,-0.1399231,1
0.7727356,2.8872223,9.776566,-0.40882874,1.026825,-0.116485596,1
0.8948364,3.1362152,9.142105,-0.45463562,0.9543915,-0.08239746,1
1.888443,3.1840973,8.531586,-0.51322937,0.70617676,-0.11009216,1
2.6665497,3.17453,8.759033,-0.5952606,0.33013916,-0.24964905,1
2.6066895,3.064392,9.757416,-0.6495819,-0.06719971,-0.4424591,1
2.2786865,2.6837158,11.114929,-0.65065,-0.37719727,-0.5979767,1
1.6585846,1.7715302,12.221054,-0.60591125,-0.48371887,-0.664032,1
1.2084808,1.0173492,13.296051,-0.49725342,-0.3835907,-0.6374054,1
0.73921204,0.6965332,13.887421,-0.29058838,-0.15774536,-0.5425873,1
0.3896637,0.76356506,13.092545,-0.009353638,0.056365967,-0.4040985,1
0.29629517,1.1969147,10.892273,0.22605896,0.13093567,-0.25709534,1
0.64105225,1.7308197,8.5746765,0.29318237,0.00630188,-0.14099121,1
1.4814148,2.451477,7.2267456,0.21435547,-0.24935913,-0.090911865,1
2.458252,3.150589,6.7886047,0.008758545,-0.60409546,-0.17933655,1
2.8556976,3.308609,7.272232,-0.12973022,-0.80223083,-0.27627563,1
2.7934418,2.9494781,8.13176,-0.28100586,-0.99824524,-0.3987732,1
2.5229034,2.245575,8.854797,-0.37794495,-1.0802765,-0.47761536,1
1.8309784,1.4914093,9.783752,-0.43226624,-1.0301971,-0.48187256,1
1.3641052,0.89764404,10.906631,-0.3939209,-0.82141113,-0.40304565,1
0.9714508,0.5097809,11.478851,-0.21920776,-0.3921051,-0.25923157,1
0.8708954,0.58399963,11.148453,-0.06687927,-0.11514282,-0.1676178,1
0.88526917,1.1394501,9.625732,0.18984985,0.25982666,-0.060028076,1
1.1773529,1.6039276,8.392715,0.303833,0.38552856,-0.039779663,1
1.4431152,2.1689606,6.9729614,0.39331055,0.46862793,-0.081329346,1
1.2898865,2.5903473,5.5699615,0.40716553,0.46862793,-0.17080688,1
1.031311,2.7699127,4.643402,0.3357849,0.3599701,-0.29864502,1
0.7607727,2.7028656,4.6649475,0.27825928,0.27687073,-0.36149597,1
0.88287354,2.1330414,4.9761963,0.20263672,0.1373291,-0.42648315,1
0.0927887,2.1929016,5.3137817,0.17492676,0.06594849,-0.4658966,1
-0.5895691,2.3150024,4.875641,0.08119202,0.0158844,-0.3433838,1
-0.06762695,2.3605042,4.9211273,-0.009353638,-0.10235596,-0.29545593,1
0.08560181,2.3581085,6.0081024,-0.15956116,-0.2429657,-0.26348877,1
0.3824768,2.4969635,7.006485,-0.22348022,-0.29197693,-0.24005127,1
0.6027527,2.5831604,7.971344,-0.24691772,-0.3324585,-0.23365784,1
0.9882202,2.688507,8.952957,-0.23945618,-0.36228943,-0.2507019,1
1.0839844,2.9015808,9.857971,-0.21176147,-0.39530945,-0.28799438,1
0.8421631,2.930313,10.547501,-0.18299866,-0.42514038,-0.3210144,1
0.49261475,2.8393402,10.973663,-0.18193054,-0.42193604,-0.30290222,1
0.44952393,2.7818756,11.426178,-0.20536804,-0.38891602,-0.265625,1
0.48065186,2.6932983,12.951279,-0.22027588,-0.29943848,-0.17080688,1
0.62908936,2.7076569,13.885025,-0.1510315,-0.19717407,-0.08026123,1
0.86372375,2.7124481,14.622437,-0.03918457,-0.12686157,0.0049591064,1
1.0887756,2.846527,15.050995,0.09503174,-0.055480957,0.082717896,1
1.3760834,2.9255219,15.118027,0.23139954,-0.0022277832,0.14982605,1
1.7232361,3.0979156,15.084518,0.3634796,0.046783447,0.18605042,1
1.83815,3.4761963,14.924103,0.4806671,0.12561035,0.20523071,1
1.754364,3.8951874,14.318375,0.5488434,0.29286194,0.22332764,1
1.541275,4.32135,12.675949,0.479599,0.5932617,0.24464417,1
1.0528564,4.563156,11.988815,0.36135864,0.7913971,0.26594543,1
0.78471375,4.8456726,11.047897,0.17066956,1.0342865,0.3096161,1
0.7511902,4.9007416,10.1045685,-0.009353638,1.0673065,0.34797668,1
0.67936707,4.6038666,9.697556,-0.1712799,0.83506775,0.36502075,1
0.6338806,4.074753,10.1835785,-0.26182556,0.44625854,0.37246704,1
0.5859833,3.5360565,11.49321,-0.22666931,0.021209717,0.3841858,1
0.50219727,3.0069275,13.001556,-0.0413208,-0.27172852,0.42359924,1
0.49261475,2.2551575,13.645599,0.32087708,-0.35057068,0.48858643,1
0.5237427,2.0779877,13.339142,0.5499115,-0.2674713,0.5194855,1
0.44473267,2.0971375,12.154007,0.8108978,-0.06719971,0.54930115,1
0.32502747,2.3509216,10.102188,0.9589691,0.10430908,0.5663452,1
0.20770264,2.7507477,8.0407715,0.95043945,0.16609192,0.54930115,1
0.15023804,2.9638367,6.5755157,0.8652191,0.14051819,0.52160645,1
0.1837616,3.047638,5.383209,0.622345,0.054229736,0.43852234,1
0.19334412,3.102707,4.9019775,0.44337463,-0.004348755,0.36502075,1
0.33459473,3.0811462,4.7439575,0.18025208,-0.08531189,0.2403717,1
0.15023804,2.7220154,5.0121,-0.14677429,-0.17160034,0.07846069,1
-0.10354614,1.9463043,6.084717,-0.36515808,-0.22912598,-0.029129028,1
-0.30465698,1.3980255,7.1405487,-0.46528625,-0.24723816,-0.090911865,1
-0.8170166,0.52653503,8.488495,-0.50897217,-0.16201782,-0.11541748,1
-1.0899506,0.030944824,9.106186,-0.45570374,-0.01499939,-0.08558655,1
-1.324585,-0.19172668,9.04155,-0.37261963,0.20336914,-0.016357422,1
-1.3437347,-0.088775635,8.43103,-0.30763245,0.38233948,0.055023193,1
-0.9367218,0.31585693,7.6409454,-0.22348022,0.6092377,0.15942383,1
-0.47943115,0.7563782,6.944229,-0.19578552,0.6859436,0.20202637,1
0.2699585,1.6374512,5.869232,-0.1979065,0.6997833,0.20202637,1
0.5740204,2.1617737,5.4191284,-0.2447815,0.6252136,0.1530304,1
0.72724915,2.5233002,5.2706757,-0.30337524,0.49206543,0.08911133,1
0.7727356,2.6430206,5.5627747,-0.35557556,0.34931946,0.040115356,1
0.6338806,2.6621704,6.0918884,-0.39604187,0.1884613,0.010284424,1
0.69132996,2.6310425,7.0687256,-0.39178467,0.026535034,0.0038909912,1
0.8708954,2.5448456,8.098236,-0.3427887,-0.1375122,0.016677856,1
1.0887756,2.5520325,9.063095,-0.26075745,-0.26107788,0.03904724,1
1.3904419,2.62146,9.757416,-0.174469,-0.32392883,0.057159424,1
1.6418304,2.731598,10.118942,-0.11907959,-0.3335266,0.06781006,1
1.99617,2.9997559,10.516373,-0.10949707,-0.33032227,0.061416626,1
2.2332,3.1529846,11.04071,-0.110565186,-0.30049133,0.03479004,1
2.4989624,3.3493042,11.854736,-0.09989929,-0.19717407,-0.04724121,1
2.161377,3.2631073,12.098938,-0.09777832,-0.06933594,-0.12287903,1
1.6873169,3.0835419,11.981628,-0.11907959,0.07022095,-0.15483093,1
1.3066406,2.7986298,11.629684,-0.1947174,0.17353821,-0.14738464,1
1.0025787,2.5496368,11.715866,-0.31082153,0.21722412,-0.116485596,1
0.8948364,2.293457,12.22345,-0.41203308,0.23320007,-0.05895996,1
1.08638,2.130661,12.663971,-0.47807312,0.20550537,-0.007827759,1
1.3138275,2.0779877,13.142822,-0.49404907,0.1330719,0.010284424,1
1.4574738,1.9367218,14.059799,-0.44717407,0.05104065,0.0017547607,1
1.4263611,1.6278687,14.524277,-0.3193512,-0.0064849854,-0.012084961,1
1.1199036,1.4770355,14.383011,-0.1510315,-0.04270935,-0.012084961,1
1.0097656,1.6111145,13.911362,0.011947632,-0.072525024,-0.007827759,1
0.8613281,2.1091003,13.008743,0.14830017,-0.08531189,0.0038909912,1
0.8158264,2.269516,11.814041,0.21221924,-0.13111877,0.0017547607,1
0.77752686,2.5807648,10.176407,0.1823883,-0.26000977,-0.0035705566,1
0.87568665,2.827362,8.842834,0.09716797,-0.34629822,-0.022735596,1
1.1055298,2.4850006,7.916275,-0.10203552,-0.52633667,-0.069610596,1
1.0887756,1.9917908,8.162872,-0.35343933,-0.7606964,-0.10157776,1
1.0384979,1.565628,9.644882,-0.5611572,-0.960968,-0.12181091,1
1.2180634,1.1083374,11.8906555,-0.6240082,-1.0664215,-0.11009216,1
1.2898865,0.7803192,13.568985,-0.4727478,-0.99505615,-0.06642151,1
1.4167786,0.6510315,14.6822815,-0.28633118,-0.84591675,-0.029129028,1
1.8309784,0.8521576,14.301605,0.1035614,-0.5103607,0.028396606,1
2.0296936,1.2041016,12.929733,0.31129456,-0.32392883,0.04437256,1
2.2738953,1.7499695,10.557083,0.47320557,-0.18650818,0.028396606,1
2.3481293,1.9031982,9.982468,0.4572296,-0.16946411,-0.044052124,1
2.798233,2.5711823,6.9466248,0.32406616,-0.22592163,-0.11967468,1
2.7599182,2.669342,6.604248,0.20050049,-0.27172852,-0.18252563,1
2.4510803,2.3628845,6.762268,0.0034179688,-0.28771973,-0.25497437,1
2.2930603,1.9893951,6.9825287,-0.08605957,-0.26107788,-0.26774597,1
1.9626617,1.8409576,7.1166077,-0.17340088,-0.15988159,-0.2507019,1
1.9051971,1.6422424,7.0998535,-0.20536804,-0.029922485,-0.20703125,1
1.9842072,1.7763062,6.9250793,-0.21388245,0.09791565,-0.17294312,1
2.0129395,1.7930756,6.817337,-0.19683838,0.21296692,-0.15908813,1
2.0464478,2.0253143,6.319336,-0.1712799,0.32907104,-0.16654968,1
1.8525238,2.1186829,5.804596,-0.16807556,0.38127136,-0.171875,1
1.620285,2.2407837,5.5579834,-0.18086243,0.40577698,-0.1953125,1
1.4455109,2.317398,5.1988525,-0.20111084,0.39938354,-0.20384216,1
1.0672302,2.379654,5.067169,-0.23731995,0.29605103,-0.21661377,1
0.72724915,2.348526,5.1701202,-0.2490387,0.19485474,-0.2144928,1
0.3777008,2.166565,5.5412292,-0.2532959,-0.020339966,-0.18252563,1
0.19813538,1.9558716,6.0607605,-0.22987366,-0.215271,-0.1207428,1
0.19813538,1.9391174,6.6880493,-0.18511963,-0.41767883,-0.04937744,1
0.31304932,1.9822083,7.4517975,-0.11907959,-0.6126251,0.020935059,1
0.52853394,2.056427,8.280197,-0.03918457,-0.75323486,0.07632446,1
0.65063477,2.1929016,8.780579,0.039642334,-0.83099365,0.11894226,1
0.8373871,2.2910614,9.168442,0.08226013,-0.8139496,0.15942383,1
1.1988983,2.54245,9.415039,0.065216064,-0.7095642,0.18391418,1
1.6562042,2.944687,9.592209,0.0034179688,-0.5966339,0.18179321,1
2.0129395,3.1290436,10.008804,-0.08392334,-0.5465698,0.1487732,1
2.1565857,3.0979156,11.330399,-0.16807556,-0.52845764,0.092300415,1
2.015335,2.7938538,12.731018,-0.18725586,-0.46028137,0.06034851,1
1.8597107,2.3628845,13.949661,-0.13612366,-0.34417725,0.07525635,1
1.5747986,2.1091003,14.622437,-0.040252686,-0.15774536,0.1295929,1
1.5556488,2.099533,14.787628,0.06201172,0.075546265,0.2084198,1
2.0105438,2.3030396,14.553009,0.16534424,0.3684845,0.28512573,1
2.6114807,2.7076569,14.035858,0.21435547,0.50590515,0.27980042,1
2.8006287,2.9901733,13.439697,0.2484436,0.6390686,0.22866821,1
2.7838593,3.2319946,12.709473,0.24098206,0.7125702,0.16900635,1
2.585144,3.229599,12.177948,0.17492676,0.6891327,0.1104126,1
2.2140503,3.0787506,11.940933,0.07266235,0.6294861,0.06567383,1
1.5676117,2.9518585,12.331177,-0.031723022,0.56129456,0.0635376,1
1.8836517,2.6573792,12.565811,-0.11268616,0.49951172,0.08592224,1
1.6298676,2.5759735,13.463638,-0.13079834,0.48353577,0.10508728,1
1.4814148,2.7268066,13.183517,-0.08605957,0.485672,0.13705444,1
1.4263611,2.652588,12.628067,-0.0690155,0.42707825,0.15409851,1
1.5053558,2.4371185,12.168381,-0.0647583,0.27368164,0.16581726,1
1.7256317,2.1761475,11.957687,-0.063690186,0.07447815,0.17326355,1
2.0727844,1.972641,12.161194,-0.03492737,-0.1055603,0.18391418,1
2.1709442,1.7212524,12.089371,0.04284668,-0.24084473,0.18818665,1
2.1350403,1.5129547,11.797272,0.13658142,-0.32606506,0.19883728,1
1.8046417,1.5297089,11.483643,0.2292633,-0.2632141,0.23825073,1
1.6250763,1.8194122,10.810867,0.31022644,-0.0544281,0.2872467,1
1.7950592,2.1617737,9.719101,0.36880493,0.19592285,0.32453918,1
2.3457336,2.688507,7.758255,0.38479614,0.40364075,0.29684448,1
2.4917755,2.851303,6.429474,0.33685303,0.4121704,0.2276001,1
2.209259,2.9231415,5.129425,0.20263672,0.2587738,0.10083008,1
1.5867615,2.9039764,4.6410065,-0.042373657,-0.08105469,-0.03126526,1
1.1845398,2.7411804,5.2706757,-0.23306274,-0.36547852,-0.10795593,1
0.9930115,2.530487,6.216385,-0.33106995,-0.54763794,-0.1356659,1
1.0001831,2.0157318,7.6265717,-0.37794495,-0.74365234,-0.14204407,1
1.0576477,1.6709747,8.54834,-0.3438568,-0.7905121,-0.12606812,1
1.3090363,1.5345001,9.168442,-0.27033997,-0.7330017,-0.11329651,1
1.4718475,1.4818268,9.348007,-0.19683838,-0.6424408,-0.11222839,1
1.7016907,1.4147949,9.252243,-0.08605957,-0.4432373,-0.13885498,1
1.6968994,1.3908386,9.094223,-0.031723022,-0.28877258,-0.15803528,1
1.359314,1.3932343,8.634537,0.03112793,-0.023529053,-0.18147278,1
1.1869354,1.5081635,8.059921,0.055618286,0.1650238,-0.19851685,1
1.0025787,1.565628,7.4685516,0.05456543,0.3376007,-0.20916748,1
0.7918854,1.5799866,7.023239,0.034317017,0.48246765,-0.20809937,1
0.48303223,1.6302643,6.549179,0.0066223145,0.58154297,-0.20384216,1
0.21488953,1.6494141,6.374405,-0.009353638,0.614563,-0.18147278,1
-0.07481384,1.6589966,6.403137,0.004486084,0.59858704,-0.1484375,1
-0.1418457,1.735611,6.240326,0.03857422,0.53041077,-0.102630615,1
-0.170578,1.9127808,6.0679474,0.07054138,0.3652954,-0.07281494,1
-0.0053710938,2.032486,6.2379456,0.08331299,0.1330719,-0.025939941,1
0.5836029,2.3030396,6.7000275,0.08119202,-0.09063721,0.0007019043,1
1.0911713,2.554428,7.1190033,0.034317017,-0.29197693,-0.013153076,1
1.5149384,2.724411,7.7917786,-0.07220459,-0.4656067,-0.04298401,1
1.8644867,2.731598,8.92424,-0.21495056,-0.62327576,-0.079193115,1
2.1733398,2.537674,10.482864,-0.33532715,-0.71595764,-0.12713623,1
1.948288,2.1043243,12.20668,-0.4216156,-0.7116852,-0.15803528,1
1.7112579,1.517746,14.105286,-0.4493103,-0.5923767,-0.12287903,1
1.6562042,1.0293274,15.728561,-0.38645935,-0.36973572,-0.046173096,1
1.6107025,0.9024353,16.509064,-0.23413086,-0.11407471,0.045440674,1
1.814209,1.0341034,15.977554,-0.07220459,0.13200378,0.12638855,1
2.1637726,1.4004211,14.763687,0.004486084,0.34931946,0.1764679,1
2.4654388,1.8505402,13.829956,-0.011489868,0.5165558,0.16368103,1
2.6066895,2.1713562,13.2074585,-0.054092407,0.6369324,0.10508728,1
2.5755768,2.1713562,12.999161,-0.06687927,0.65078735,0.084854126,1
1.9674377,2.0851593,11.7901,-0.1435852,0.6443939,-0.028060913,1
1.2060852,1.9606628,11.636871,-0.174469,0.49632263,-0.08985901,1
0.88526917,1.7763062,11.902618,-0.14465332,0.44519043,-0.09411621,1
0.55007935,1.7236328,11.976837,-0.006164551,0.30670166,-0.06642151,1
0.5165558,1.6326599,11.509964,0.12911987,0.1842041,-0.022735596,1
0.6889343,1.7930756,10.676788,0.22180176,0.054229736,0.035842896,1
1.6083069,2.130661,9.434204,0.19943237,-0.045898438,0.057159424,1
2.3409424,2.3341675,8.818893,0.10142517,-0.15774536,0.008148193,1
3.2148285,2.4850006,8.146118,-0.06687927,-0.28771973,-0.114349365,1
3.3608704,2.4442902,8.256256,-0.2181549,-0.36654663,-0.23260498,1
3.011322,2.032486,8.986481,-0.4248047,-0.42300415,-0.42967224,1
2.554016,1.656601,9.458145,-0.50683594,-0.44111633,-0.5148926,1
1.8213959,1.0700226,10.439758,-0.53559875,-0.4815979,-0.55856323,1
1.7926636,0.84017944,11.033524,-0.4812622,-0.4901123,-0.54151917,1
1.91716,0.5720215,11.7326355,-0.28952026,-0.4890442,-0.50424194,1
2.0177155,0.49780273,11.847549,-0.13079834,-0.48265076,-0.47229004,1
2.2068634,0.42118835,10.954514,0.112075806,-0.47732544,-0.40090942,1
2.513321,0.61273193,9.889099,0.20689392,-0.5146179,-0.3625641,1
2.7623138,0.8569336,8.969727,0.18664551,-0.5455017,-0.3391266,1
2.9179382,1.036499,8.612991,0.112075806,-0.53378296,-0.33059692,1
3.2698822,1.1921234,8.541168,-0.07752991,-0.39849854,-0.33805847,1
3.3297424,1.1993103,8.522003,-0.23413086,-0.21954346,-0.34977722,1
3.1070862,1.1274872,8.723114,-0.35343933,-0.001159668,-0.3529663,1
2.8317566,1.1777649,8.955353,-0.40457153,0.22680664,-0.34552002,1
2.4774017,1.2041016,8.905075,-0.38113403,0.44625854,-0.32421875,1
2.1757355,1.3645172,8.4956665,-0.33639526,0.5953827,-0.30290222,1
1.9650574,1.5991364,7.734314,-0.25756836,0.77542114,-0.27946472,1
1.6705627,1.7906799,6.793396,-0.22241211,0.8446655,-0.2741394,1
1.2587585,1.8457489,5.8788147,-0.23413086,0.85850525,-0.2741394,1
0.8996277,1.9487,5.5268555,-0.27033997,0.82229614,-0.26348877,1
0.6242981,2.0300903,5.2658997,-0.31188965,0.7370758,-0.25602722,1
0.35136414,1.9319305,5.5101013,-0.3438568,0.5836792,-0.24964905,1
0.2819214,1.7691345,6.029648,-0.33746338,0.3961792,-0.23686218,1
0.29389954,1.6470184,7.073517,-0.27568054,0.20657349,-0.22514343,1
0.21009827,1.6302643,7.940216,-0.15956116,0.028671265,-0.21875,1
0.004196167,1.5345001,8.354416,-0.016815186,-0.15136719,-0.1953125,1
-0.40042114,1.2855072,8.811707,0.14404297,-0.3335266,-0.11541748,1
-0.43634033,1.2879028,8.7877655,0.20263672,-0.40382385,-0.05256653,1
-0.170578,1.4147949,8.809311,0.22605896,-0.4656067,0.03265381,1
0.20770264,1.6470184,9.0846405,0.20263672,-0.48265076,0.09017944,1
0.7727356,1.8218079,9.398285,0.14616394,-0.45176697,0.10934448,1
1.0049744,1.8265839,10.379913,0.1035614,-0.42407227,0.09336853,1
1.0193329,1.7571564,11.3615265,0.1078186,-0.35162354,0.08378601,1
1.0169525,1.7427979,11.814041,0.13658142,-0.2589569,0.10296631,1
1.2874908,1.8026428,11.837982,0.16001892,-0.16520691,0.14343262,1
1.6011353,1.9247589,11.754181,0.13871765,-0.12472534,0.16474915,1
2.264328,2.1138916,11.423782,0.057754517,-0.088516235,0.17219543,1
2.743164,2.1761475,11.342377,-0.0413208,-0.098098755,0.15835571,1
3.0256805,2.293457,11.545883,-0.1947174,-0.12579346,0.11468506,1
3.0544128,2.142624,12.297668,-0.348114,-0.13537598,0.070999146,1
2.9394836,1.9439087,13.396606,-0.43547058,-0.08744812,0.06248474,1
2.604309,1.7619476,14.485962,-0.43759155,0.00630188,0.09976196,1
2.5444489,1.680542,15.144363,-0.37794495,0.10110474,0.1487732,1
2.513321,1.8960266,15.419708,-0.17660522,0.26942444,0.20628357,1
2.197281,2.0372772,13.695877,-0.006164551,0.33546448,0.24783325,1
2.0488434,1.9510956,12.256958,0.016204834,0.21401978,0.27980042,1
2.1206665,1.4985809,11.878677,-0.018951416,0.0158844,0.30856323,1
2.31221,1.1586151,12.197113,-0.042373657,-0.16841125,0.33518982,1
2.197281,1.0460815,12.968033,-0.007232666,-0.2632141,0.33093262,1
1.9243469,0.8377838,13.444489,0.109954834,-0.2344513,0.32347107,1
1.5747986,0.64863586,13.219437,0.2250061,-0.12046814,0.3287964,1
1.0456696,0.6007538,11.720657,0.3773346,0.15437317,0.3575592,1
0.73921204,0.70610046,10.09021,0.41249084,0.33439636,0.39697266,1
0.6266937,0.8713074,9.070282,0.40289307,0.3972473,0.41934204,1
0.44952393,1.0149536,7.6720734,0.350708,0.34718323,0.43852234,1
0.49021912,1.0843811,6.9346466,0.27400208,0.20018005,0.45236206,1
0.7655487,1.2759247,6.927475,0.20263672,0.023345947,0.44810486,1
1.0408936,1.2974701,7.291382,0.18345642,-0.13964844,0.40655518,1
1.225235,1.2639465,7.6050262,0.21115112,-0.24935913,0.34265137,1
1.2396088,1.170578,7.758255,0.25482178,-0.27919006,0.27445984,1
1.1797485,1.0628357,7.739105,0.31022644,-0.25256348,0.21588135,1
1.0552521,0.95988464,7.502075,0.34324646,-0.16734314,0.18179321,1
1.0193329,1.0221405,7.181259,0.3496399,-0.05015564,0.16581726,1
1.0815887,1.0029907,6.884369,0.34111023,0.06489563,0.15196228,1
1.0911713,1.170578,6.1948395,0.26974487,0.27474976,0.13598633,1
1.2348175,1.3668976,5.737549,0.17173767,0.42601013,0.117874146,1
1.4957886,1.5847778,5.639389,0.053497314,0.53466797,0.07632446,1
1.3880463,1.6230774,5.931488,-0.051971436,0.59432983,0.017745972,1
1.201294,1.5680237,6.484543,-0.08818054,0.6294861,-0.03126526,1
1.0504608,1.4937897,6.7095947,-0.08392334,0.63053894,-0.057891846,1
0.81822205,1.3812714,6.8628235,-0.054092407,0.5858002,-0.07493591,1
0.60754395,1.3333893,7.1118164,-0.035995483,0.5272064,-0.067489624,1
0.47106934,1.3908386,7.4948883,-0.016815186,0.43666077,-0.04084778,1
0.34417725,1.5823822,7.995285,0.034317017,0.30670166,-0.011016846,1
0.26037598,1.5680237,8.402298,0.11528015,0.10749817,0.03479004,1
0.35614014,1.6757507,8.476517,0.1504364,-0.012878418,0.06993103,1
0.7033081,1.8672943,8.316101,0.1355133,-0.17906189,0.10934448,1
0.98342896,2.0492554,8.555527,0.05456543,-0.37399292,0.12106323,1
1.2755127,2.2647247,9.592209,-0.08924866,-0.59558105,0.1104126,1
1.5628204,2.1522064,10.454132,-0.17234802,-0.6712036,0.104019165,1
1.790268,2.0468597,11.462082,-0.2639618,-0.7223358,0.084854126,1
1.7232361,1.6949158,12.872269,-0.3236084,-0.7308655,0.070999146,1
1.4191742,1.2926788,14.330338,-0.30444336,-0.68185425,0.11148071,1
1.5269165,0.91918945,15.259293,-0.22027588,-0.5550995,0.20735168,1
1.8549194,0.9718628,14.983963,-0.10736084,-0.34950256,0.306427,1
2.1015167,1.3118439,14.387802,-0.075408936,-0.20568848,0.34690857,1
2.4558563,1.838562,13.480392,-0.10949707,-0.053359985,0.35435486,1
2.767105,2.1761475,12.884247,-0.1947174,0.044647217,0.3053589,1
2.537262,2.111496,12.367096,-0.33319092,0.10217285,0.20309448,1
2.192505,1.7404022,12.271332,-0.40989685,0.096847534,0.15409851,1
1.9051971,1.3166199,12.917755,-0.47914124,0.014816284,0.1253357,1
1.7974548,1.0149536,13.798828,-0.41203308,-0.07785034,0.14556885,1
1.9434967,0.7851105,14.203445,-0.23092651,-0.1641388,0.18391418,1
2.2068634,0.60554504,14.282455,-0.054092407,-0.20462036,0.21588135,1
2.80542,1.1250916,13.300827,0.23991394,-0.17692566,0.2584839,1
3.2483368,1.4339447,12.407791,0.3730774,-0.14390564,0.2318573,1
4.5124817,1.9654541,9.19957,0.3272705,-0.13858032,0.10934448,1
4.8548584,2.0540466,8.320892,0.19410706,-0.14709473,-0.03340149,1
4.766266,1.9678497,7.801346,-0.051971436,-0.13432312,-0.25283813,1
3.7966156,1.3980255,8.308929,-0.37794495,-0.100234985,-0.47654724,1
3.0687714,0.6965332,9.484482,-0.5249481,-0.058685303,-0.56495667,1
2.1350403,-0.024124146,10.786926,-0.53134155,-0.0022277832,-0.57455444,1
1.8190002,-0.119888306,11.627289,-0.38539124,0.036132812,-0.5202179,1
1.7088776,-0.13186646,12.180344,-0.09777832,0.0712738,-0.4371338,1
1.8597107,-0.0049743652,11.8164215,0.15362549,0.08406067,-0.37428284,1
2.2978363,0.40203857,9.611374,0.47853088,0.0670166,-0.31462097,1
2.6856995,0.9024353,7.703186,0.52433777,0.0020446777,-0.3167572,1
2.980194,1.2711334,6.7407227,0.44337463,-0.049087524,-0.3433838,1
3.363266,1.601532,6.290619,0.18345642,-0.11833191,-0.45629883,1
3.0041351,1.4650726,6.640167,-0.044509888,-0.1375122,-0.55111694,1
2.4797974,1.1586151,7.612213,-0.21388245,-0.10661316,-0.6043701,1
1.8070374,0.8258209,8.632141,-0.27033997,-0.013946533,-0.60757446,1
1.2180634,0.68455505,9.204361,-0.21708679,0.09791565,-0.570282,1
0.7176666,0.71328735,9.400681,-0.13293457,0.15223694,-0.5223541,1
0.42079163,0.89764404,9.122955,0.06840515,0.17887878,-0.42008972,1
0.43754578,1.2041016,8.136536,0.20368958,0.15969849,-0.3487091,1
0.3896637,1.6230774,7.06633,0.25909424,0.08299255,-0.3018341,1
-0.21606445,1.9774323,6.166107,0.22180176,-0.0107421875,-0.27734375,1
-0.46505737,2.434723,5.8500824,0.14830017,0.007369995,-0.15803528,1
0.81822205,2.5472412,4.8038177,-0.026397705,-0.1641388,-0.14204407,1
1.0552521,2.8130035,6.0487976,-0.16595459,-0.355896,-0.22833252,1
1.141449,2.6023102,6.556366,-0.21069336,-0.3921051,-0.3199463,1
-0.13705444,2.8177948,6.223572,-0.2501068,-0.5817261,-0.36575317,1
-1.0995331,2.7459717,5.804596,-0.35557556,-0.83099365,-0.20063782,1
-0.66378784,2.154602,6.221176,-0.5249481,-1.0376587,0.030517578,1
0.19573975,1.4028168,6.858032,-0.6389313,-1.0792084,0.1295929,1
1.0361023,0.82102966,8.335266,-0.75717163,-1.1452484,0.2084198,1
2.6450043,0.4547119,12.56102,-0.73799133,-1.0174255,0.20948792,1
3.4039612,0.8593292,13.916138,-0.53985596,-0.69252014,0.13705444,1
3.8014069,1.8792572,14.248932,-0.29804993,-0.26000977,0.013473511,1
3.4087524,2.5903473,14.169922,-0.014678955,0.14479065,-0.15270996,1
3.1884918,2.6837158,13.557007,0.11314392,0.3642273,-0.21981812,1
2.901184,2.2359924,12.352737,0.22819519,0.57728577,-0.28692627,1
2.6474,1.8074341,11.634476,0.2250061,0.6923218,-0.31355286,1
2.3481293,1.194519,10.545105,0.18771362,0.7626343,-0.29545593,1
2.161377,0.873703,10.047119,0.09503174,0.7093811,-0.21342468,1
2.185318,0.82102966,9.989655,0.024734497,0.54319763,-0.14311218,1
2.427124,0.9431305,10.221893,-0.054092407,0.4121704,-0.11967468,1
1.7088776,0.64863586,10.786926,-0.13293457,0.35676575,-0.14204407,1
1.5508575,0.44752502,11.239426,-0.20429993,0.438797,-0.104766846,1
1.6945038,0.67259216,11.538696,-0.2778015,0.65930176,-0.08558655,1
1.9195557,0.6031494,11.6536255,-0.301239,0.7306824,-0.07600403,1
2.185318,0.64863586,11.751785,-0.33746338,0.8648987,-0.016357422,1
2.7216187,0.81144714,11.682358,-0.35343933,0.9085846,0.002822876,1
2.80542,0.9000397,11.569824,-0.36195374,0.9362793,-0.029129028,1
2.1182861,0.89764404,11.545883,-0.36941528,0.9682312,-0.067489624,1
0.97384644,1.1897278,12.031906,-0.36515808,1.0182953,-0.081329346,1
-0.23283386,1.3956299,11.993607,-0.2256012,1.0651703,-0.051498413,1
-0.70687866,0.9910126,10.008804,-0.2181549,0.7317505,0.030517578,1
-0.9846039,1.0700226,9.829239,-0.31188965,0.38127136,0.13172913,1
-1.0276947,1.5153503,10.597778,-0.3715515,0.21508789,0.21481323,1
0.7918854,0.16023254,9.3767395,-0.58673096,-0.18118286,0.47047424,1
1.4526978,-0.4407196,12.051056,-0.732666,-0.49864197,0.5343933,1
1.7232361,-1.0368805,13.7174225,-0.63679504,-0.34417725,0.5833893,1
1.8166046,-1.3146057,14.301605,-0.45037842,-0.0075531006,0.59724426,1
1.6274719,-1.0895538,14.603287,-0.1904602,0.4068451,0.57699585,1
1.0887756,-0.730423,14.136414,0.13446045,0.8404083,0.5429077,1
0.72006226,-0.49339294,12.623276,0.46255493,1.1961975,0.5098877,1
0.67936707,-0.48620605,10.334412,0.69584656,1.3123169,0.468338,1
0.47106934,-0.4024048,8.366379,0.77467346,1.1834106,0.42147827,1
0.020965576,-0.112716675,7.1644897,0.74165344,0.93840027,0.39804077,1
-0.32380676,0.28952026,6.4677887,0.655365,0.68167114,0.4118805,1
-0.383667,0.6821594,6.084717,0.53712463,0.39938354,0.44277954,1
-0.10354614,1.0221405,6.245117,0.4050293,0.1181488,0.4502411,1
0.54289246,0.9167938,8.986481,0.3027649,-0.032043457,0.43852234,1
0.3537445,0.8880615,8.249069,0.27293396,0.10324097,0.4076233,1
0.4590912,0.8018799,8.955353,0.2601471,0.096847534,0.40122986,1
0.48065186,1.0412903,9.27858,0.30062866,0.25131226,0.41082764,1
0.576416,1.3884583,8.993668,0.3538971,0.4153595,0.4076233,1
0.64105225,1.6542053,8.644119,0.38052368,0.5357361,0.3809967,1
0.6817627,2.0684052,7.8348694,0.35708618,0.6380005,0.31175232,1
0.65063477,2.238388,7.3057556,0.29423523,0.6571808,0.25636292,1
0.576416,2.3317719,6.8795776,0.20796204,0.6646271,0.2084198,1
0.23164368,2.4011993,6.5060883,0.026855469,0.6092377,0.13491821,1
-0.0843811,2.3389435,6.537216,-0.12654114,0.52082825,0.09336853,1
-0.18733215,2.1689606,6.793396,-0.2735443,0.40150452,0.06674194,1
-0.170578,1.9415131,7.521225,-0.36195374,0.3141632,0.047561646,1
0.056869507,1.6159058,8.014435,-0.3896637,0.26089478,0.029449463,1
0.0018005371,1.4339447,8.399902,-0.38113403,0.2193451,0.02519226,1
-0.07720947,1.1250916,9.235474,-0.31721497,0.20230103,0.030517578,1
-0.16578674,1.0796051,9.77417,-0.21601868,0.23213196,0.059280396,1
-0.23760986,1.1514282,10.300903,-0.045578003,0.2662201,0.10296631,1
-0.13465881,1.2041016,10.18837,0.109954834,0.2854004,0.13278198,1
-0.06283569,1.2687378,9.769394,0.24098206,0.25982666,0.14237976,1
-0.034103394,1.3980255,8.811707,0.3027649,0.14265442,0.13705444,1
-0.19691467,1.5680237,8.344833,0.30595398,-0.0309906,0.1338501,1
-0.31661987,1.7858887,8.170059,0.2612152,-0.20462036,0.13491821,1
-0.3190155,1.8529205,8.466934,0.1781311,-0.33564758,0.14131165,1
-0.4123993,1.9893951,9.166046,0.088653564,-0.36547852,0.16368103,1
-0.41000366,1.9031982,9.93219,0.037521362,-0.30795288,0.1764679,1
-0.2974701,1.7739258,10.880295,0.025802612,-0.15774536,0.21481323,1
-0.12030029,1.8433533,11.191544,0.07798767,-0.033111572,0.23504639,1
-0.07241821,1.9822083,10.832413,0.11634827,0.0861969,0.23078918,1
-0.06283569,2.257553,10.051895,0.100357056,0.16716003,0.21800232,1
-0.20649719,2.6118927,9.2426605,-0.0040283203,0.15863037,0.19244385,1
-0.39562988,2.77948,9.017609,-0.1510315,0.009490967,0.14663696,1
-0.47703552,2.4658356,9.106186,-0.28952026,-0.23764038,0.104019165,1
-0.44351196,1.9893951,9.67601,-0.39071655,-0.50608826,0.070999146,1
-0.462677,1.486618,10.535538,-0.4535675,-0.7553711,0.053955078,1
-0.3070526,1.0604401,11.878677,-0.46421814,-0.90663147,0.053955078,1
-0.23521423,0.8258209,12.953674,-0.36941528,-1.0195465,0.082717896,1
-0.09396362,0.70610046,13.549835,-0.268219,-1.0515137,0.11468506,1
0.50219727,0.3469696,14.916916,-0.056228638,-0.9598999,0.19137573,1
0.8924408,0.31106567,15.941635,0.14297485,-0.63072205,0.25422668,1
1.6083069,0.5528717,15.417313,0.34324646,-0.15029907,0.3149414,1
2.5037384,1.1969147,14.12204,0.45509338,0.25238037,0.30749512,1
3.236374,1.783493,12.556244,0.45083618,0.5442505,0.17114258,1
3.3512878,2.1282654,10.619324,0.29743958,0.6795502,-0.08026123,1
2.877243,2.051651,9.549118,-0.009353638,0.64546204,-0.36895752,1
1.9387207,1.4363403,9.826843,-0.3427887,0.5091095,-0.62994385,1
0.7033081,0.38768005,11.225067,-0.55903625,0.2992401,-0.7748108,1
-0.35014343,-0.814209,13.15239,-0.572876,0.13519287,-0.7673645,1
-0.99897766,-1.7072449,14.4644165,-0.40031433,0.11921692,-0.60650635,1
-1.0085449,-2.0520172,14.885788,-0.094573975,0.24172974,-0.3625641,1
-0.3764801,-1.8365326,14.335129,0.26441956,0.39938354,-0.11541748,1
0.40641785,-1.1709442,13.2864685,0.512619,0.46009827,0.020935059,1
1.3712921,0.035720825,11.763763,0.8226166,0.46009827,0.0869751,1
1.9315338,0.61273193,10.293716,0.89079285,0.4441223,0.040115356,1
2.1757355,1.1921234,8.792557,0.8886566,0.35890198,-0.071746826,1
1.9818115,1.4985809,7.8947296,0.79811096,0.22254944,-0.22088623,1
1.4957886,1.5847778,7.6265717,0.6660156,0.073410034,-0.35510254,1
0.710495,1.2184601,7.8229065,0.5041046,-0.034179688,-0.4222107,1
0.40164185,1.091568,7.7989655,0.3965149,-0.018203735,-0.38386536,1
0.2915039,1.0149536,7.5715027,0.31129456,0.025466919,-0.3210144,1
0.3034668,1.0724182,7.5667267,0.24098206,0.052108765,-0.25283813,1
0.26756287,1.1250916,7.217163,0.18878174,0.028671265,-0.20596313,1
0.32263184,1.2926788,7.0088654,0.17173767,-0.0309906,-0.17294312,1
0.3321991,1.3812714,6.9609833,0.14830017,-0.1918335,-0.14099121,1
0.552475,1.5632324,7.1429443,0.13339233,-0.29197693,-0.12927246,1
0.8708954,1.6111145,7.2985687,0.12806702,-0.3047638,-0.12713623,1
1.1222839,1.6589966,7.425461,0.10569763,-0.27812195,-0.16122437,1
1.4167786,1.7404022,7.8348694,0.08226013,-0.17799377,-0.20703125,1
1.9602661,1.759552,8.6297455,0.06626892,0.019088745,-0.2613678,1
2.39122,1.8672943,9.369553,0.08119202,0.33439636,-0.33592224,1
2.3170013,1.9367218,9.8076935,0.123794556,0.72961426,-0.44352722,1
2.1110992,1.9079895,10.051895,0.16534424,1.0534515,-0.52767944,1
1.0265198,1.5536499,9.091827,0.23565674,1.522171,-0.6267395,1
-0.16339111,1.1370544,7.9306335,0.26974487,1.6744995,-0.6214142,1
-1.1450195,1.2447968,7.413498,0.47427368,1.6297607,-0.5532379,1
-2.2439575,1.3166199,4.461441,0.51049805,1.0960693,-0.4456482,1
-2.4139404,1.7116699,4.8469086,0.44232178,0.4164276,-0.2975769,1
-1.9398956,1.7787018,5.0408325,0.4103546,0.035064697,-0.14204407,1
-0.99897766,2.1617737,5.5627747,0.41567993,-0.34310913,-0.046173096,1
-0.16578674,2.755539,5.5939026,0.385849,-0.85124207,-0.04084778,1
0.6841583,3.6006927,6.3648376,0.2750702,-1.0802765,-0.11755371,1
1.3210144,3.8161774,8.026413,0.015136719,-1.0610962,-0.30822754,1
1.5149384,3.423523,9.697556,-0.30549622,-0.74790955,-0.54151917,1
1.5532532,2.7220154,11.938538,-0.5654297,-0.1843872,-0.73220825,1
0.43275452,1.1226959,12.934525,-0.5643616,0.39405823,-0.8962555,1
-0.65660095,0.5504761,11.8164215,-0.40031433,0.82974243,-0.83872986,1
-1.5256958,0.119522095,10.952118,-0.23625183,0.78393555,-0.6374054,1
-2.7180023,0.78271484,10.126129,-0.014678955,0.5463867,-0.488266,1
-2.7180023,0.78271484,10.126129,-0.014678955,0.5463867,-0.488266,1
-1.1569824,2.597519,10.351181,0.043899536,-0.6573639,0.18605042,1
-0.14424133,3.0500336,10.9617,0.16108704,-0.70529175,0.14982605,1
-0.4123993,3.0931244,10.719879,0.3070221,-0.72766113,0.08164978,1
-0.6518097,2.9805908,10.310471,0.36668396,-0.7223358,0.053955078,1
-0.98939514,2.85849,9.608978,0.40289307,-0.6626892,0.04437256,1
-1.3317719,2.6477966,9.206757,0.36561584,-0.5913086,0.07525635,1
-1.348526,2.6358337,9.223511,0.30490112,-0.52633667,0.13172913,1
-1.0444641,2.6238556,9.4557495,0.26441956,-0.44963074,0.1892395,1
-0.67814636,2.6980743,9.597,0.256958,-0.39743042,0.22332764,1
-0.16099548,2.8441315,9.810089,0.26228333,-0.3409729,0.23292542,1
0.13827515,2.9039764,9.910645,0.2835846,-0.32606506,0.20948792,1
0.5189514,2.9542542,10.176407,0.3272705,-0.33032227,0.16793823,1
0.82540894,2.9518585,10.516373,0.37626648,-0.34843445,0.10508728,1
0.7871094,2.8321533,10.4206085,0.45509338,-0.38571167,0.026260376,1
0.7823181,2.5999146,10.375122,0.48599243,-0.41767883,-0.015289307,1
0.6865387,2.3892212,10.332031,0.50942993,-0.4197998,-0.053634644,1
0.5261383,2.0588226,10.298508,0.4987793,-0.37399292,-0.07067871,1
0.48065186,1.8289795,10.36554,0.479599,-0.2909088,-0.05256653,1
0.52853394,1.704483,10.494827,0.45402527,-0.14923096,-0.02168274,1
0.5692291,1.6589966,10.590591,0.42633057,0.035064697,0.018798828,1
0.6865387,1.8242035,10.480469,0.39756775,0.23426819,0.057159424,1
0.76794434,2.0492554,10.195557,0.36880493,0.38552856,0.07632446,1
0.9930115,2.3748627,9.743057,0.32406616,0.41856384,0.047561646,1
0.9714508,2.6047058,9.561096,0.29637146,0.37168884,0.0049591064,1
0.7463989,2.743576,9.371948,0.2793274,0.26409912,-0.046173096,1
0.5979614,2.7770844,9.280975,0.26228333,0.11282349,-0.07707214,1
0.6266937,2.7746887,9.132523,0.23884583,-0.051223755,-0.09411621,1
0.7607727,2.633438,9.008026,0.18559265,-0.262146,-0.11541748,1
0.95469666,2.5520325,9.020004,0.14830017,-0.3633423,-0.13139343,1
1.1031342,2.561615,8.979294,0.0801239,-0.4581604,-0.15803528,1
1.0600433,2.6477966,8.919449,-0.03704834,-0.49650574,-0.1995697,1
0.9499054,2.62146,8.933807,-0.12333679,-0.47946167,-0.21128845,1
0.8373871,2.5448456,9.024796,-0.268219,-0.4102173,-0.20384216,1
0.9235687,2.4802094,9.043945,-0.36408997,-0.36547852,-0.1953125,1
1.299469,2.3293762,9.046341,-0.4407959,-0.3633423,-0.22088623,1
1.7016907,2.2264252,9.161255,-0.53559875,-0.40275574,-0.3167572,1
1.3808594,2.379654,9.819672,-0.55903625,-0.31221008,-0.3678894,1
1.1534119,2.5256958,9.896286,-0.5696869,-0.19396973,-0.3764038,1
1.1007385,2.3988037,9.934586,-0.5920563,-0.1566925,-0.37428284,1
1.2036896,2.1689606,10.051895,-0.61763,-0.11727905,-0.38172913,1
1.2108765,1.9151764,10.470886,-0.6027069,0.0030975342,-0.3998413,1
0.9068146,1.783493,10.528351,-0.56010437,0.17781067,-0.394516,1
0.62190247,1.8648987,10.50441,-0.48553467,0.37275696,-0.3529663,1
0.42797852,2.008545,10.162033,-0.39178467,0.5357361,-0.27627563,1
0.5045929,2.2647247,9.369553,-0.28952026,0.58047485,-0.20596313,1
0.67697144,2.5352783,8.718338,-0.2181549,0.438797,-0.17720032,1
1.1175079,2.8201904,7.95697,-0.22987366,0.20976257,-0.2144928,1
1.3976288,2.6597748,7.7079773,-0.33746338,-0.10661316,-0.28479004,1
1.5053558,2.2910614,8.117386,-0.45037842,-0.35801697,-0.3401947,1
1.7759094,2.1186829,10.027954,-0.5664978,-0.60835266,-0.3860016,1
1.7567596,2.1138916,11.4405365,-0.5611572,-0.5188751,-0.40730286,1
1.5077515,2.0348816,11.773331,-0.49404907,-0.3282013,-0.40516663,1
0.8661041,1.8122253,11.797272,-0.40138245,-0.13537598,-0.35723877,1
0.9211731,1.8074341,11.916992,-0.28100586,0.12667847,-0.31782532,1
1.1845398,1.3740845,11.656021,-0.17660522,0.43347168,-0.30503845,1
1.4814148,1.5297089,10.7174835,-0.14570618,0.7306824,-0.3401947,1
1.8764648,1.4914093,10.640869,-0.075408936,0.6987152,-0.3678894,1
2.5085297,1.0963593,10.315262,0.05029297,0.6198883,-0.4605713,1
2.1661682,0.80426025,9.812485,0.11741638,0.53041077,-0.5894623,1
2.398407,1.565628,9.891495,0.21435547,0.37275696,-0.73539734,1
2.2044678,2.3533173,10.387085,0.34857178,0.22894287,-0.8951874,1
1.6083069,2.8752441,10.03035,0.5541687,0.063827515,-1.0038452,1
0.8206177,3.1912842,9.415039,0.7075653,-0.1641388,-1.0336761,1
-0.0796051,3.6773071,8.680023,0.8567047,-0.7095642,-0.9963989,1
-0.91996765,4.0101013,9.228302,0.8748169,-1.2432556,-0.8323364,1
-0.6709595,4.096298,10.796494,0.8503113,-1.1580353,-0.7684326,1
-0.7404022,3.6797028,11.318436,0.8321991,-0.87680054,-0.72901917,1
-0.87446594,2.8441315,10.806076,0.75123596,-0.4656067,-0.5969238,1
-0.52012634,2.1234741,10.224289,0.5861206,-0.046966553,-0.2922516,1
0.008987427,1.9822083,9.982468,0.4764099,0.19165039,-0.11967468,1
0.6338806,2.3581085,9.537155,0.2985077,0.54852295,0.055023193,1
0.8613281,3.0524292,9.178024,0.15362549,0.694458,0.096572876,1
1.0839844,3.732376,9.369553,0.049224854,0.65078735,0.06460571,1
0.5883789,3.9718018,9.975281,-0.007232666,0.4867401,0.007080078,1
-0.41957092,3.9933472,11.234634,0.004486084,0.44944763,-0.017410278,1
-0.11550903,3.909546,10.832413,0.060943604,0.10749817,-0.024871826,1
-0.7380066,3.4498596,12.68074,0.16427612,0.009490967,-0.011016846,1
-0.9223633,2.968628,12.745377,0.34857178,0.15863037,0.07846069,1
-0.35014343,2.7411804,11.526733,0.4092865,0.13945007,0.17965698,1
-0.28311157,2.8489075,11.112534,0.4242096,0.07447815,0.24250793,1
-0.5680084,3.1098785,10.628906,0.3869171,-0.09916687,0.3256073,1
-0.42436218,3.3971863,10.537918,0.32513428,-0.24084473,0.39378357,1
-0.053268433,3.550415,10.789322,0.2793274,-0.35057068,0.435318,1
0.655426,3.6509705,11.093384,0.22819519,-0.32606506,0.42573547,1
1.2515717,3.715622,10.925781,0.17492676,-0.25149536,0.37460327,1
1.3449554,3.9071503,10.739044,0.048171997,-0.11193848,0.21481323,1
1.1510162,4.017288,10.686371,-0.055160522,-0.020339966,0.055023193,1
0.6865387,3.6653442,10.4254,-0.16062927,-0.065078735,-0.07814026,1
-0.21366882,1.996582,9.67601,-0.34172058,-0.31648254,-0.16548157,1
-1.0444641,1.2639465,12.000778,-0.45037842,-0.54338074,-0.11541748,1
-0.6829376,0.34457397,12.901001,-0.45144653,-0.54763794,0.059280396,1
-0.73561096,0.33261108,14.873825,-0.3278656,-0.34950256,0.26701355,1
-0.8648987,0.58399963,15.50589,-0.075408936,-0.133255,0.47047424,1
-1.0348816,0.739624,15.4292755,0.31129456,-0.0022277832,0.71655273,1
-0.13705444,1.6422424,14.033463,0.6308594,0.24917603,0.8454437,1
0.9930115,2.8968048,11.007187,0.7118225,0.40364075,0.76875305,1
1.3210144,3.0739746,9.312088,0.5807953,0.37487793,0.5663452,1
1.0289154,3.3804321,7.899521,0.35708618,0.22361755,0.37034607,1
0.2531891,3.308609,7.425461,0.13339233,-0.07891846,0.23078918,1
-0.5033722,2.9279175,7.4661713,-0.07434082,-0.49757385,0.16474915,1
-0.79307556,2.4706268,8.076691,-0.25650024,-0.9034424,0.1572876,1
-0.4267578,1.8553162,8.682419,-0.3981781,-1.1633606,0.18711853,1
-0.21606445,1.2184601,11.555466,-0.4493103,-1.2560425,0.24143982,1
0.66259766,0.91918945,10.734253,-0.4919281,-0.8480377,0.34584045,1
0.4112091,0.6893463,11.59137,-0.5526428,-0.45283508,0.47261047,1
0.67697144,0.94073486,11.677567,-0.42694092,-0.2632141,0.59298706,1
1.0384979,1.6087189,11.342377,-0.28952026,-0.10128784,0.62493896,1
1.1462402,1.8170166,10.808472,-0.087127686,0.14265442,0.5865936,1
1.1629944,1.8888397,9.819672,0.024734497,0.28858948,0.5471802,1
1.110321,1.9271545,8.816498,0.123794556,0.47181702,0.5056305,1
1.062439,2.0851593,7.9138794,0.17706299,0.6294861,0.4555664,1
0.8445587,1.9798126,6.824524,0.18025208,0.60710144,0.4278717,1
0.73921204,2.1881104,6.4941254,0.13339233,0.50590515,0.4076233,1
0.7655487,2.4778137,6.3959503,0.034317017,0.57196045,0.3618164,1
0.49980164,2.3868408,6.319336,-0.07752991,0.6103058,0.34797668,1
-0.012557983,1.8601074,6.616226,-0.14891052,0.5964508,0.3607483,1
-0.36212158,1.3668976,7.478134,-0.17553711,0.6571808,0.4406433,1
-0.35253906,1.1777649,8.203583,-0.10417175,0.7221527,0.5514374,1
0.14067078,1.4842224,8.6465,0.016204834,0.6752777,0.66116333,1
0.5452881,1.7643433,8.735092,0.11528015,0.5783386,0.7059021,1
0.9379425,2.2814941,8.624954,0.23139954,0.39512634,0.7101593,1
1.6035309,2.5209045,8.27301,0.29423523,0.13519287,0.6409149,1
1.8237915,2.5807648,8.136536,0.26335144,-0.13858032,0.5514374,1
2.1158905,2.530487,8.478912,0.18771362,-0.44856262,0.44171143,1
2.257141,2.4538727,9.039154,0.079055786,-0.70103455,0.32026672,1
2.379242,2.1641693,10.085419,-0.05303955,-0.8906555,0.19563293,1
2.379242,1.759552,11.203506,-0.17874146,-0.9854584,0.10189819,1
2.39122,1.2376099,12.448502,-0.27033997,-0.9641571,0.04437256,1
2.4606476,0.9167938,13.7964325,-0.31828308,-0.8246002,0.0124053955,1
2.4654388,0.7276459,14.588913,-0.2969818,-0.5881195,-0.019546509,1
2.4797974,0.5959778,14.8403015,-0.23199463,-0.31967163,-0.04937744,1
2.5085297,0.54330444,14.828339,-0.18725586,-0.19610596,-0.067489624,1
2.2547455,0.74201965,14.380615,-0.033859253,0.045715332,-0.11329651,1
2.1757355,1.0149536,14.215424,0.100357056,0.11602783,-0.1356659,1
2.355301,1.2615662,13.640808,0.23991394,0.15437317,-0.15270996,1
2.6521912,1.3908386,12.517929,0.35176086,0.18313599,-0.1633606,1
2.9203339,1.5991364,11.380692,0.3815918,0.15116882,-0.19317627,1
3.253128,2.008545,9.762207,0.3027649,0.008422852,-0.2730713,1
3.3656616,2.1929016,9.393494,0.15576172,-0.16946411,-0.394516,1
3.3177795,2.2671204,9.8316345,-0.011489868,-0.2429657,-0.5180969,1
3.1358185,2.0396729,10.3415985,-0.13505554,-0.20036316,-0.6139679,1
3.0208893,1.7380066,10.6935425,-0.20323181,-0.060806274,-0.68959045,1
2.750351,1.5823822,10.669601,-0.20855713,0.11495972,-0.7471161,1
2.2858734,1.5321045,10.293716,-0.18086243,0.23852539,-0.78334045,1
1.8213959,1.5991364,9.632919,-0.11907959,0.23745728,-0.78759766,1
1.5532532,1.6925201,8.699173,-0.10203552,0.14265442,-0.7758789,1
1.407196,1.7188568,7.9019165,-0.12226868,-0.055480957,-0.7620392,1
1.2922821,1.7260284,7.6529083,-0.19258118,-0.27600098,-0.73753357,1
1.1582031,1.4028168,7.46138,-0.28633118,-0.46774292,-0.70025635,1
0.94033813,1.1849518,7.8037415,-0.3715515,-0.6286011,-0.6448517,1
0.8110504,0.76116943,8.6082,-0.3896637,-0.76174927,-0.5670929,1
0.8948364,0.45710754,9.319275,-0.31082153,-0.74684143,-0.45843506,1
1.1725616,0.21528625,9.690384,-0.16488647,-0.5923767,-0.33486938,1
1.6322632,0.16500854,9.276184,-0.0050964355,-0.34524536,-0.23365784,1
1.8357697,0.47625732,8.296951,0.09609985,-0.10235596,-0.1761322,1
1.888443,0.9646759,7.0830994,0.10569763,0.036132812,-0.171875,1
1.7328186,1.4746399,6.2666626,0.011947632,0.0904541,-0.22833252,1
1.4263611,1.7332153,5.8596497,-0.06581116,0.10430908,-0.26242065,1
1.0145569,1.6446381,5.8405,-0.16595459,0.12879944,-0.29864502,1
0.6721802,1.4602814,6.108658,-0.2415924,0.17141724,-0.31143188,1
0.33699036,1.1681824,6.324127,-0.23945618,0.20657349,-0.28479004,1
0.020965576,0.8449707,6.271454,-0.20429993,0.2193451,-0.22727966,1
-0.20170593,0.6797638,5.9937286,-0.18299866,0.2076416,-0.14524841,1
-0.24719238,0.79948425,5.814163,-0.1670227,0.169281,-0.062149048,1
-0.012557983,0.97665405,5.6298065,-0.174469,0.1138916,-0.013153076,1
0.3034668,1.1418457,5.6992493,-0.17234802,-0.02671814,0.033721924,1
0.7583771,1.3621216,6.0416107,-0.14465332,-0.15881348,0.027328491,1
1.1222839,1.6230774,6.676071,-0.09138489,-0.30262756,-0.013153076,1
1.4598694,1.8050385,7.660095,0.005554199,-0.37826538,-0.07281494,1
1.4598694,1.8577118,8.54834,0.121673584,-0.35801697,-0.13034058,1
1.08638,1.7451935,9.240265,0.23352051,-0.25682068,-0.15589905,1
0.4758606,1.5512543,9.292938,0.303833,-0.041641235,-0.12394714,1
-0.1993103,1.6230774,9.259415,0.2889099,0.25024414,-0.011016846,1
-0.977417,2.0827637,9.395889,0.20796204,0.5442505,0.16793823,1
-1.1402283,2.7148438,9.747833,0.09503174,0.7871399,0.37246704,1
-0.8002472,3.6030884,10.334412,-0.018951416,0.95651245,0.5429077,1
-0.5632324,3.823349,10.480469,-0.018951416,0.95651245,0.5429077,1
-0.5632324,3.823349,10.480469,-0.018951416,0.95651245,0.5429077,1
2.6019135,6.1170044,11.761368,-0.2778015,0.31523132,0.32133484,1
2.2691193,5.38916,12.68074,-0.30444336,-0.19290161,0.096572876,1
1.6681671,4.503311,13.451675,-0.2916565,-0.611557,-0.02168274,1
0.2986908,2.992569,15.08931,-0.2490387,-0.8384552,0.018798828,1
-0.22564697,2.3437347,16.31514,-0.16275024,-0.8150177,0.1849823,1
-0.12748718,2.3700714,16.533005,-0.09777832,-0.6062317,0.38311768,1
0.08560181,2.7100525,16.444427,-0.07646179,-0.32713318,0.5429077,1
0.16940308,2.913559,16.027832,-0.084991455,-0.055480957,0.66967773,1
0.35614014,3.0548096,14.603287,-0.108428955,0.073410034,0.7879181,1
1.1486206,3.0787506,13.540253,-0.14251709,0.0158844,0.89338684,1
2.0488434,2.9973602,12.853119,-0.17660522,-0.20994568,0.911499,1
3.0615997,2.8177948,12.795654,-0.174469,-0.3633423,0.878479,1
4.067154,2.3221893,13.394211,-0.11268616,-0.740448,0.6643524,1
3.0927124,1.1993103,14.713409,0.0023651123,-0.7084961,0.5386505,1
1.9339294,0.40203857,15.199432,0.20263672,-0.38571167,0.5237427,1
0.8948364,0.2559967,14.7612915,0.46362305,0.108566284,0.57699585,1
0.27235413,0.5672455,13.487579,0.7618866,0.61776733,0.6686096,1
0.11193848,1.0939636,11.052673,1.0292816,1.0151062,0.75382996,1
0.2819214,1.7619476,8.1197815,1.1709595,1.1898041,0.798584,1
-0.24240112,2.4993591,6.022461,1.1528473,1.1408081,0.79112244,1
0.40403748,2.9805908,3.4869995,0.990921,0.97569275,0.7889862,1
1.2635498,3.447464,2.2851105,0.62553406,0.42175293,0.69311523,1
1.8644867,3.684494,2.48143,0.4018402,0.0435791,0.57273865,1
2.185318,3.5528107,3.714447,0.076934814,-0.45283508,0.3341217,1
2.39122,3.1721344,5.1916656,-0.073272705,-0.6722717,0.21162415,1
2.5588074,2.4610596,6.800583,-0.21920776,-0.8704071,0.03265381,1
2.5205078,2.2048798,7.2818146,-0.23519897,-0.8565674,-0.044052124,1
2.1733398,1.0628357,9.474899,-0.1670227,-0.67759705,-0.12820435,1
1.9602661,0.9000397,9.953735,-0.07752991,-0.50076294,-0.15270996,1
1.3521271,0.72047424,9.901062,0.06414795,-0.22380066,-0.15164185,1
0.81822205,0.7013092,9.113373,0.19303894,0.056365967,-0.106903076,1
0.5093689,0.87849426,7.789383,0.25802612,0.28219604,-0.038726807,1
0.40403748,1.2639465,6.635376,0.25056458,0.4356079,0.03265381,1
0.45191956,1.7164612,5.6441803,0.18878174,0.47395325,0.092300415,1
0.497406,2.1450195,5.050415,0.11846924,0.35676575,0.10296631,1
0.5476837,2.348526,5.0791473,0.06626892,0.22468567,0.092300415,1
0.86849976,2.554428,5.5507965,0.0076904297,0.021209717,0.07952881,1
1.2539673,2.530487,5.8428955,-0.024276733,-0.09916687,0.06567383,1
1.6585846,2.4802094,6.211609,-0.09352112,-0.34736633,0.016677856,1
1.9746246,2.4802094,6.9849243,-0.15423584,-0.5550995,-0.04084778,1
2.1996765,2.4442902,7.964157,-0.20323181,-0.67015076,-0.08453369,1
2.161377,2.3030396,9.240265,-0.26608276,-0.7681427,-0.12181091,1
1.893219,2.0779877,10.4756775,-0.32148743,-0.7585602,-0.12927246,1
1.6274719,1.9247589,11.483643,-0.3438568,-0.6893158,-0.08239746,1
1.5676117,1.7308197,12.594543,-0.34065247,-0.62327576,-0.00036621094,1
1.8716736,1.6733551,13.492371,-0.301239,-0.54444885,0.09336853,1
2.3960114,1.6350555,14.610458,-0.20750427,-0.41342163,0.16261292,1
2.9897614,1.6302643,15.783615,-0.044509888,-0.19503784,0.20309448,1
3.3201752,1.8744812,16.10205,0.17066956,0.02760315,0.1999054,1
3.5069122,2.1258698,16.080505,0.32939148,0.18952942,0.15942383,1
3.1837006,2.5999146,14.861847,0.5307312,0.42494202,0.04437256,1
2.88443,2.6813202,14.248932,0.58825684,0.5218811,-0.016357422,1
1.9387207,2.7651215,12.800446,0.5914459,0.6369324,-0.0738678,1
1.2587585,2.7387848,11.430969,0.5349884,0.69766235,-0.06854248,1
0.8517456,2.7962494,9.874725,0.3315277,0.7786102,-0.008895874,1
0.9068146,2.8441315,9.491653,0.10675049,0.80737305,0.03265381,1
0.9930115,3.064392,10.083023,-0.07220459,0.821228,0.03691101,1
0.97624207,3.2152252,10.358353,-0.15956116,0.7818146,0.023071289,1
0.91160583,3.337326,10.243439,-0.16488647,0.5687561,-0.014221191,1
0.83499146,3.3540955,10.027954,-0.12333679,0.24810791,-0.060028076,1
1.2060852,2.9231415,9.69516,-0.08924866,-0.084243774,-0.11541748,1
1.6178894,2.676529,9.448563,-0.11694336,-0.38998413,-0.18998718,1
2.0392761,2.5089417,9.644882,-0.20962524,-0.6009064,-0.2741394,1
2.1829224,2.2359924,10.322449,-0.38327026,-0.72554016,-0.38279724,1
2.15419,1.9008179,11.093384,-0.46102905,-0.69996643,-0.427536,1
1.9315338,1.1514282,12.623276,-0.48660278,-0.5071564,-0.43606567,1
1.5388794,0.76116943,12.946487,-0.40882874,-0.21208191,-0.37854004,1
1.3066406,0.952713,12.470047,-0.2501068,0.0030975342,-0.28373718,1
1.4455109,1.3692932,11.102951,-0.06581116,0.10217285,-0.20809937,1
1.5628204,1.8098297,9.213928,0.05456543,0.063827515,-0.16975403,1
1.541275,2.166565,7.3320923,0.0566864,-0.11088562,-0.15270996,1
1.6945038,2.396408,6.2882233,-0.047714233,-0.391037,-0.13778687,1
2.178131,2.6310425,6.034439,-0.20643616,-0.7095642,-0.13885498,1
2.9945526,2.585556,6.642563,-0.38859558,-1.0610962,-0.19424438,1
3.569168,2.2192383,7.581085,-0.48339844,-1.1601715,-0.24111938,1
3.9019623,1.7427979,8.366379,-0.6080322,-1.1186218,-0.32421875,1
4.0264587,1.3405609,8.6465,-0.71136475,-0.9322052,-0.38386536,1
3.9330902,1.2041016,8.907471,-0.80830383,-0.73405457,-0.42008972,1
3.521286,1.0628357,9.343216,-0.9286804,-0.262146,-0.4456482,1
3.1621552,1.2208557,9.5898285,-0.96383667,0.14051819,-0.441391,1
2.8628693,1.3166199,9.484482,-0.93826294,0.4707489,-0.44352722,1
2.403183,1.4147949,9.26181,-0.8530426,0.6625061,-0.45310974,1
1.8213959,1.3381805,9.374344,-0.6911316,0.6763458,-0.45950317,1
1.3641052,1.1562195,9.678406,-0.42268372,0.56129456,-0.42648315,1
1.1294708,0.8018799,9.580246,-0.09989929,0.4121704,-0.3636322,1
0.97624207,0.5911865,9.19957,0.18345642,0.24705505,-0.2890625,1
0.73921204,0.6534271,8.603409,0.3730774,0.08831787,-0.19851685,1
0.6602173,0.84017944,8.105423,0.46574402,-0.0309906,-0.09197998,1
0.91400146,1.2591705,7.648117,0.45936584,-0.11088562,-0.0014343262,1
1.572403,1.7427979,7.2099915,0.34643555,-0.15029907,0.035842896,1
1.9674377,1.9750366,7.3799744,0.17919922,-0.14497375,0.015609741,1
2.3026276,2.183319,7.777405,0.00022888184,-0.07998657,-0.04298401,1
2.3864288,2.1617737,8.378357,-0.11907959,-0.011810303,-0.09623718,1
2.1733398,1.917572,8.991272,-0.23838806,0.10643005,-0.15696716,1
1.6130981,1.5536499,9.989655,-0.23092651,0.1373291,-0.1761322,1
1.359314,1.3645172,10.533142,-0.12654114,0.10430908,-0.1633606,1
1.0744019,1.1035461,10.983246,0.021530151,0.06915283,-0.12287903,1
0.9666748,0.9646759,11.071838,0.19943237,0.06915283,-0.044052124,1
0.99061584,1.0293274,10.777344,0.350708,0.096847534,0.045440674,1
1.1031342,1.2998657,10.36554,0.4572296,0.11921692,0.12319946,1
1.2946777,1.6709747,10.195557,0.5030365,0.15969849,0.18605042,1
1.5101471,1.8792572,9.946564,0.5083618,0.22254944,0.23292542,1
1.8070374,2.0420685,9.592209,0.47001648,0.2577057,0.25209045,1
1.9219513,2.1138916,9.204361,0.3869171,0.24066162,0.24676514,1
1.948288,2.142624,9.304916,0.27825928,0.2193451,0.2318573,1
1.99617,2.1857147,9.745438,0.19517517,0.21083069,0.22866821,1
2.0871582,2.1378326,10.147675,0.15576172,0.19697571,0.23399353,1
2.058426,2.1210785,10.516373,0.16427612,0.14372253,0.22120667,1
1.9985657,2.2743073,10.796494,0.20689392,0.085128784,0.20523071,1
1.9674377,2.54245,10.791718,0.256958,0.030807495,0.1849823,1
2.027298,2.7579346,10.324844,0.2750702,-0.036315918,0.15942383,1
2.3098145,2.8920135,9.398285,0.18559265,-0.2589569,0.106155396,1
2.7120361,2.8393402,8.878738,0.063079834,-0.4901123,0.047561646,1
2.865265,2.4706268,9.506027,-0.1435852,-0.80755615,-0.04937744,1
2.944275,1.8289795,10.753403,-0.31082153,-1.0088959,-0.12820435,1
2.7766876,1.1274872,12.266541,-0.38220215,-1.0344696,-0.17720032,1
2.4319153,0.56484985,13.765305,-0.3193512,-0.7447052,-0.17720032,1
1.8980103,0.18894958,14.526672,-0.2021637,-0.42514038,-0.13671875,1
1.4550781,0.1482544,14.29921,0.07373047,0.20336914,-0.019546509,1
1.1055298,0.4690857,12.1085205,0.26548767,0.6113739,0.06993103,1
0.98342896,0.7659607,10.612152,0.3549652,0.8137665,0.11894226,1
0.79907227,1.2232513,8.794952,0.36454773,0.85850525,0.13066101,1
0.552475,1.6733551,7.406311,0.29211426,0.78926086,0.14131165,1
0.27713013,1.9917908,6.659317,0.12593079,0.55703735,0.14663696,1
0.13108826,2.1282654,6.6257935,0.024734497,0.3684845,0.1487732,1
0.09996033,2.0372772,7.207596,-0.08073425,0.0712738,0.1807251,1
0.39445496,1.8122253,7.909088,-0.09564209,-0.074661255,0.20628357,1
0.78471375,1.5560455,8.356812,-0.07434082,-0.23977661,0.22653198,1
0.9690552,1.5105591,8.699173,-0.02960205,-0.36761475,0.22120667,1
0.95469666,1.5608368,9.070282,0.020477295,-0.37187195,0.21907043,1
0.9858246,1.6087189,9.225906,0.055618286,-0.3132782,0.22972107,1
1.1127167,1.7475891,9.154083,0.06626892,-0.215271,0.23931885,1
1.1462402,1.8792572,9.075073,0.04284668,-0.06187439,0.24464417,1
1.1749573,2.0372772,9.031967,0.0012969971,0.11921692,0.24143982,1
1.1270752,2.238388,8.792557,-0.043441772,0.2896576,0.24250793,1
1.0744019,2.2264252,8.636932,-0.09138489,0.40150452,0.23931885,1
0.9977875,2.269516,8.672836,-0.12547302,0.4707489,0.24357605,1
0.9714508,2.2168427,8.840439,-0.118011475,0.5144348,0.25209045,1
1.00737,2.1474152,8.919449,-0.08392334,0.52082825,0.26701355,1
1.1199036,2.1569977,8.933807,-0.028533936,0.4867401,0.27659607,1
1.1773529,2.2168427,8.914658,0.051361084,0.4164276,0.27340698,1
1.1701813,2.2312164,8.828461,0.11846924,0.32055664,0.27020264,1
1.220459,2.3461304,8.692001,0.16960144,0.22573853,0.26594543,1
1.3401642,2.3820496,8.644119,0.20475769,0.13626099,0.26168823,1
1.4790344,2.4778137,8.684814,0.21754456,0.08299255,0.24890137,1
1.6729584,2.573578,8.854797,0.2324524,0.014816284,0.22120667,1
1.7878723,2.6382294,8.907471,0.2292633,-0.0032958984,0.18711853,1
1.9051971,2.70047,8.893112,0.20263672,0.010559082,0.15196228,1
1.9315338,2.6286469,8.876343,0.14297485,0.0435791,0.11148071,1
1.972229,2.6789246,8.78537,0.060943604,0.098983765,0.073135376,1
1.9913788,2.5807648,8.775787,-0.05303955,0.15116882,0.041168213,1
2.0320892,2.4658356,9.087036,-0.16914368,0.17353821,0.013473511,1
2.0799713,2.300644,9.6736145,-0.2532959,0.1650238,-0.008895874,1
2.2236176,2.2719116,10.025574,-0.28312683,0.120285034,-0.04298401,1
2.4103699,2.0803833,10.631302,-0.27033997,0.02973938,-0.08772278,1
2.4199524,2.0133362,11.05986,-0.22241211,-0.09063721,-0.14204407,1
2.3648834,1.9343262,11.268158,-0.1435852,-0.26535034,-0.21556091,1
2.1517944,1.8098297,11.294495,-0.10417175,-0.3835907,-0.26348877,1
1.912384,1.656601,11.383072,-0.11694336,-0.44644165,-0.28373718,1
1.7663269,1.4195709,11.488419,-0.1478424,-0.45069885,-0.27734375,1
1.7375946,1.3309937,11.787704,-0.2021637,-0.40382385,-0.25497437,1
1.7423859,1.2280426,12.228226,-0.2447815,-0.32073975,-0.22193909,1
1.790268,1.2400055,12.678345,-0.2447815,-0.17692566,-0.17507935,1
1.91716,1.3214111,12.8172,-0.18832397,-0.06933594,-0.14524841,1
1.9937744,1.5201263,12.6184845,-0.110565186,-9.1552734E-05,-0.12927246,1
2.161377,1.6949158,12.139648,-0.0647583,0.019088745,-0.13352966,1
2.5229034,1.9869995,11.246613,-0.043441772,-0.022460938,-0.1761322,1
2.664154,2.087555,10.968887,-0.08605957,-0.06719971,-0.2230072,1
3.119049,2.3126068,10.44455,-0.19258118,-0.12898254,-0.32421875,1
3.2004547,2.2264252,10.590591,-0.32574463,-0.16841125,-0.4467163,1
3.1717224,2.1569977,10.631302,-0.35876465,-0.17266846,-0.47973633,1
2.4917755,1.2902832,11.8116455,-0.51322937,-0.08956909,-0.64805603,1
1.8621063,0.75398254,12.735809,-0.48660278,0.02760315,-0.66296387,1
1.493393,0.43556213,13.214645,-0.36941528,0.20124817,-0.62994385,1
1.110321,0.39964294,13.27449,-0.19151306,0.4111023,-0.5489807,1
0.8589325,0.43556213,12.946487,0.011947632,0.5932617,-0.4499054,1
0.8708954,0.7779236,12.024719,0.2090149,0.6806183,-0.35510254,1
1.0217285,1.0843811,10.751007,0.36987305,0.6720886,-0.2922516,1
1.2444,1.4315491,9.130142,0.44869995,0.55810547,-0.25602722,1
1.3976288,1.6685791,8.35202,0.43592834,0.3557129,-0.23898315,1
1.5819702,1.7906799,7.7199554,0.36135864,0.09152222,-0.2421875,1
1.7735138,1.8002472,7.614609,0.256958,-0.15136719,-0.25283813,1
1.9985657,1.7188568,8.122177,0.1589508,-0.32499695,-0.26348877,1
2.1470032,1.5536499,8.653687,0.088653564,-0.42407227,-0.26242065,1
2.240387,1.4052124,9.039154,0.04496765,-0.44218445,-0.27095032,1
2.2068634,1.2471924,9.482086,0.027923584,-0.35057068,-0.2741394,1
2.1254578,1.1897278,9.410263,0.013015747,-0.1609497,-0.25390625,1
1.8261871,1.2687378,9.060699,-0.0050964355,0.061691284,-0.2102356,1
1.6274719,1.4315491,8.768616,-0.02532959,0.24598694,-0.17080688,1
1.4407196,1.6230774,8.481308,-0.026397705,0.34931946,-0.13459778,1
1.3353729,1.6853333,8.201187,-0.0040283203,0.38659668,-0.102630615,1
1.3329773,1.7236328,7.844452,0.018341064,0.36741638,-0.071746826,1
1.3736877,1.7475891,7.5978394,0.025802612,0.29711914,-0.05895996,1
1.359314,1.8505402,7.437439,0.027923584,0.24810791,-0.05682373,1
1.3880463,1.86969,7.36322,0.020477295,0.056365967,-0.04937744,1
1.3904419,1.8337708,7.346451,0.016204834,-0.0022277832,-0.04510498,1
1.40242,1.8313751,7.3847656,0.00022888184,-0.1375122,-0.04298401,1
1.4359283,1.7308197,7.7055817,-0.022140503,-0.21740723,-0.038726807,1
1.3952332,1.6494141,7.9928894,-0.0413208,-0.26428223,-0.025939941,1
1.249176,1.6135101,8.452576,-0.03704834,-0.28025818,-0.007827759,1
1.2444,1.5440674,8.768616,-0.006164551,-0.27172852,0.030517578,1
1.3329773,1.5201263,8.991272,0.01940918,-0.25149536,0.053955078,1
1.4263611,1.6159058,9.010422,0.053497314,-0.22698975,0.084854126,1
1.5580292,1.704483,8.996063,0.08226013,-0.20462036,0.09869385,1
1.6394348,1.8840485,8.859589,0.100357056,-0.18011475,0.096572876,1
1.6873169,2.0253143,8.797348,0.102493286,-0.15881348,0.084854126,1
1.7663269,2.1522064,8.830856,0.08226013,-0.11621094,0.06248474,1
1.8046417,2.1378326,8.759033,0.041778564,-0.06401062,0.037979126,1
1.6562042,2.0971375,8.648895,0.015136719,-0.043762207,0.028396606,1
1.5077515,2.075592,8.591446,-0.02532959,-0.020339966,0.029449463,1
1.407196,2.0492554,8.696777,-0.06794739,-0.004348755,0.049697876,1
1.3952332,2.003769,8.940994,-0.09031677,0.007369995,0.07632446,1
1.4526978,2.063614,9.247452,-0.092453,0.014816284,0.11468506,1
1.5340881,2.0588226,9.2977295,-0.07752991,0.011627197,0.13066101,1
1.8357697,2.2264252,9.302521,-0.05303955,-0.018203735,0.14237976,1
1.9315338,2.3150024,9.2977295,-0.044509888,-0.04270935,0.13066101,1
2.0656128,2.4538727,9.388702,-0.032791138,-0.08317566,0.10189819,1
2.161377,2.530487,9.546722,-0.021072388,-0.10874939,0.06460571,1
2.2667236,2.5879517,9.632919,-0.014678955,-0.13432312,0.020935059,1
2.1829224,2.4658356,9.812485,-0.0008392334,-0.15562439,-0.023803711,1
2.0632172,2.317398,10.092606,0.005554199,-0.1609497,-0.051498413,1
1.9530792,2.2264252,10.28653,0.014083862,-0.15562439,-0.05470276,1
1.8908234,2.1474152,10.434967,0.03112793,-0.1375122,-0.048309326,1
1.8549194,2.0540466,10.691147,0.049224854,-0.10661316,-0.03340149,1
1.778305,2.154602,10.808472,0.06626892,-0.060806274,-0.025939941,1
1.6298676,2.355713,10.801285,0.074798584,-0.022460938,-0.0067596436,1
1.4095917,2.597519,10.597778,0.053497314,0.00630188,0.018798828,1
1.5221252,2.6909027,10.384689,0.005554199,-0.013946533,0.041168213,1
2.0799713,2.5807648,10.0447235,-0.087127686,-0.10128784,0.031585693,1
2.4367065,2.3628845,9.944168,-0.22348022,-0.27600098,-0.012084961,1
2.6976776,2.087555,10.559479,-0.35876465,-0.45388794,-0.08665466,1
2.5803528,1.7068787,11.567429,-0.45570374,-0.55296326,-0.15057373,1
2.0943298,1.0341034,13.006348,-0.48979187,-0.54870605,-0.16015625,1
1.8836517,0.7468109,13.829956,-0.43652344,-0.42086792,-0.12606812,1
1.6178894,0.3350067,14.818756,-0.2873993,-0.14176941,-0.07067871,1
1.4598694,0.2559967,14.696655,-0.07220459,0.23106384,0.007080078,1
1.2922821,0.3828888,13.377441,0.13339233,0.5890045,0.07739258,1
1.1079254,0.8425751,11.586578,0.2601471,0.8414612,0.12106323,1
0.92596436,1.3166199,9.857971,0.28997803,0.9863434,0.14556885,1
0.7535858,1.6518097,8.838043,0.24098206,1.0044556,0.14663696,1
0.5404968,1.9391174,7.899521,0.1546936,0.90644836,0.14556885,1
0.35853577,2.0731964,7.607422,0.11102295,0.8244171,0.14343262,1
0.20291138,1.9989777,7.6098175,-0.009353638,0.45051575,0.15089417,1
0.20051575,1.7475891,7.861206,-0.035995483,0.21722412,0.16687012,1
0.41360474,1.5608368,8.35202,-0.03492737,0.023345947,0.1849823,1
0.7463989,1.570404,8.799728,-0.010421753,-0.09170532,0.19030762,1
0.9235687,1.6661835,9.1828,0.034317017,-0.2110138,0.1764679,1
1.0193329,1.783493,9.427017,0.0801239,-0.2909088,0.15942383,1
1.0265198,1.7404022,9.575455,0.1078186,-0.30262756,0.14131165,1
1.0696259,1.7284241,9.57785,0.11846924,-0.25468445,0.12745667,1
1.0289154,1.7092743,9.474899,0.09184265,-0.17160034,0.12426758,1
0.88526917,1.6996918,9.489258,0.03112793,-0.02671814,0.14237976,1
0.873291,1.6829376,9.491653,0.022598267,0.007369995,0.1487732,1
0.8996277,1.7284241,9.460541,-0.038116455,0.16821289,0.20095825,1
0.9930115,1.8098297,9.383926,-0.063690186,0.21296692,0.22439575,1
1.1438446,1.9271545,9.295334,-0.07220459,0.22254944,0.23399353,1
1.1797485,1.9750366,9.319275,-0.061553955,0.1884613,0.22866821,1
1.2683411,2.0181274,9.175629,-0.03704834,0.13200378,0.21800232,1
1.2707367,2.0803833,9.178024,-0.016815186,0.07980347,0.20735168,1
1.3401642,2.0540466,9.247452,0.01940918,0.013763428,0.19351196,1
1.3162231,2.1498108,9.134918,0.0524292,-0.029922485,0.17433167,1
1.3210144,2.1210785,9.027191,0.065216064,-0.04057312,0.1615448,1
1.3401642,2.1474152,8.964935,0.060943604,-0.023529053,0.15515137,1
1.4119873,2.1881104,8.780579,0.043899536,0.0020446777,0.14770508,1
1.4215698,2.214447,8.701569,0.020477295,0.021209717,0.13172913,1
1.3569183,2.2527618,8.689606,-0.0019073486,0.052108765,0.12426758,1
1.2898865,2.300644,8.797348,-0.0178833,0.08938599,0.120010376,1
1.280304,2.3461304,8.847626,-0.022140503,0.122406006,0.120010376,1
1.359314,2.3628845,9.065491,-0.0050964355,0.15863037,0.120010376,1
1.407196,2.4850006,8.984085,0.037521362,0.20230103,0.106155396,1
1.6466217,2.676529,8.711151,0.0566864,0.21083069,0.07525635,1
1.596344,2.7699127,8.43103,0.051361084,0.18632507,0.026260376,1
1.5197296,2.8082123,8.062317,0.016204834,0.12454224,-0.022735596,1
1.3736877,2.8249664,8.057526,-0.047714233,0.0393219,-0.06109619,1
1.1342621,2.6789246,8.282593,-0.1158905,-0.036315918,-0.081329346,1
1.0001831,2.5256958,8.620163,-0.1670227,-0.095962524,-0.0738678,1
1.0097656,2.4059906,9.024796,-0.20750427,-0.14709473,-0.053634644,1
1.2539673,2.3676758,9.204361,-0.23413086,-0.20887756,-0.038726807,1
1.5915527,2.518509,9.616165,-0.2692871,-0.30262756,-0.060028076,1
1.8190002,2.506546,10.106964,-0.2959137,-0.36228943,-0.08665466,1
1.9411011,2.324585,10.648056,-0.3236084,-0.44218445,-0.12713623,1
1.912384,2.1330414,11.162811,-0.34065247,-0.5103607,-0.16122437,1
1.8046417,1.7906799,12.125275,-0.34065247,-0.531662,-0.1761322,1
1.7447815,1.6087189,12.659195,-0.30337524,-0.47200012,-0.16868591,1
1.5891571,1.4243622,13.279282,-0.21708679,-0.35269165,-0.12820435,1
1.596344,1.3262024,13.494766,-0.19578552,-0.32286072,-0.11967468,1
1.8980103,1.3022614,13.456451,-0.06687927,-0.13005066,-0.083465576,1
2.0009613,1.3357849,13.176331,0.0076904297,0.073410034,-0.0738678,1
2.2379913,1.4459076,12.498779,0.018341064,0.17781067,-0.069610596,1
2.4127655,1.6087189,11.842758,-0.007232666,0.24917603,-0.09197998,1
2.422348,1.7906799,11.498001,-0.06262207,0.2662201,-0.1441803,1
2.271515,1.9917908,11.160416,-0.13505554,0.2395935,-0.21342468,1
2.2451782,2.020523,11.069443,-0.15423584,0.22787476,-0.23046875,1
2.1949005,1.8720856,10.700729,-0.32893372,0.10217285,-0.34977722,1
2.2619324,1.6709747,10.614532,-0.48339844,-0.022460938,-0.4509735,1
2.2379913,1.3525391,11.107742,-0.5920563,-0.11300659,-0.53619385,1
1.9889984,0.9048157,11.969666,-0.64105225,-0.15029907,-0.57455444,1
1.7878723,0.34457397,12.865082,-0.64212036,-0.12472534,-0.59265137,1
1.5508575,-0.052856445,13.418152,-0.58566284,-0.051223755,-0.57987976,1
1.0169525,-0.53408813,14.074158,-0.44184875,0.11282349,-0.5117035,1
0.84935,-0.65141296,14.210632,-0.15530396,0.40577698,-0.3668213,1
0.8661041,-0.49578857,13.523499,0.112075806,0.6369324,-0.24537659,1
0.9379425,-0.37606812,12.83876,0.17492676,0.68167114,-0.21981812,1
0.92596436,0.28233337,10.592987,0.46574402,0.85850525,-0.10583496,1
1.0456696,0.7683563,8.960144,0.57014465,0.85105896,-0.055770874,1
1.0935669,1.1753693,7.6409454,0.5552368,0.7157593,-0.03552246,1
1.196518,1.467453,6.6688995,0.49664307,0.5644989,-0.03552246,1
1.383255,1.6518097,6.0966797,0.34750366,0.24917603,-0.05470276,1
1.5867615,1.6302643,6.0200653,0.24310303,0.042510986,-0.07814026,1
1.6945038,1.5919647,6.5827026,0.08119202,-0.26107788,-0.11541748,1
1.8261871,1.6063232,7.1309814,-0.009353638,-0.42726135,-0.14738464,1
2.0009613,1.6422424,7.6170044,-0.0690155,-0.550827,-0.17720032,1
2.1182861,1.6949158,8.167664,-0.10203552,-0.62753296,-0.2144928,1
2.0871582,1.6087189,8.617783,-0.1158905,-0.59877014,-0.23472595,1
2.07518,1.4722443,8.885925,-0.12121582,-0.48797607,-0.23472595,1
2.2236176,1.3956299,9.031967,-0.12547302,-0.36761475,-0.22727966,1
2.1996765,1.438736,9.008026,-0.12333679,-0.27386475,-0.22621155,1
2.2020721,1.6757507,8.756638,-0.1158905,-0.15348816,-0.24432373,1
2.1110992,1.9295349,8.215546,-0.13505554,-0.098098755,-0.27201843,1
1.8405457,2.0061493,8.019226,-0.1670227,-0.08744812,-0.28799438,1
1.5149384,1.8960266,7.7486877,-0.20536804,-0.13432312,-0.27520752,1
1.4311371,1.735611,7.765442,-0.23838806,-0.19717407,-0.24537659,1
1.6370392,1.7140656,7.9928894,-0.2501068,-0.25149536,-0.23153687,1
1.7663269,1.6829376,8.074295,-0.26182556,-0.30049133,-0.2379303,1
1.8477325,1.7404022,8.361603,-0.2692871,-0.3367157,-0.25390625,1
1.8573151,1.7427979,8.62735,-0.27140808,-0.31221008,-0.27841187,1
1.8022461,1.6781464,8.80452,-0.2692871,-0.22592163,-0.29438782,1
1.6897125,1.6470184,8.833252,-0.268219,-0.11193848,-0.2922516,1
1.6538086,1.6039276,8.782974,-0.2778015,0.013763428,-0.28373718,1
1.7399902,1.7308197,8.768616,-0.29484558,0.073410034,-0.28799438,1
1.6729584,1.783493,8.718338,-0.34172058,0.17460632,-0.30290222,1
1.4981842,1.7308197,8.744675,-0.36941528,0.21722412,-0.30929565,1
1.141449,1.5680237,8.850006,-0.510025,0.3876648,-0.30717468,1
0.72006226,1.3094482,9.187592,-0.6900635,0.6380005,-0.24432373,1
0.37530518,1.031723,9.948944,-0.7987213,0.87768555,-0.15696716,1
0.1550293,0.81863403,10.540314,-0.82855225,1.0491943,-0.067489624,1
0.0018005371,0.5504761,11.167603,-0.7891388,1.1951294,0.06034851,1
0.052078247,0.5121765,11.363922,-0.6730194,1.2100525,0.17433167,1
0.19334412,0.6869507,11.502792,-0.49725342,1.1333466,0.25422668,1
0.26756287,1.0820007,11.253784,-0.24264526,0.9416046,0.31175232,1
0.4686737,1.6039276,10.988037,-0.055160522,0.6891327,0.30322266,1
0.72006226,1.9439087,10.308075,0.04284668,0.50590515,0.26701355,1
0.81344604,1.9606628,10.130905,0.06840515,0.1415863,0.1764679,1
0.5045929,1.5943604,9.719101,0.0066223145,-0.058685303,0.1381073,1
0.126297,1.2879028,9.788544,-0.11161804,-0.14602661,0.1381073,1
-0.12269592,0.98861694,9.757416,-0.14038086,-0.16520691,0.1487732,1
-0.41000366,0.33740234,10.686371,-0.32254028,-0.3399048,0.27659607,1
-0.2687378,0.050094604,11.452515,-0.37794495,-0.42726135,0.37886047,1
0.07841492,-0.060043335,12.261749,-0.38113403,-0.5082245,0.47686768,1
0.5740204,-0.009765625,13.118881,-0.32254028,-0.5103607,0.5588989,1
1.0504608,0.038116455,13.679123,-0.23625183,-0.3878479,0.5865936,1
1.3449554,0.22966003,13.78447,-0.14251709,-0.17585754,0.59510803,1
1.328186,0.84736633,13.904175,-0.008285522,0.10749817,0.62280273,1
2.027298,0.581604,12.431732,0.0843811,0.20230103,0.57699585,1
2.1446075,0.69174194,12.328781,0.1312561,0.04145813,0.47473145,1
2.1422272,0.8305969,12.28569,0.19624329,-0.04057312,0.40016174,1
2.2930603,0.66300964,11.840378,0.30915833,-0.20462036,0.259552,1
2.379242,0.4954071,11.6536255,0.38798523,-0.4112854,0.10083008,1
2.257141,0.2775421,11.514755,0.4529724,-0.5934448,-0.055770874,1
1.8477325,0.0046081543,11.478851,0.49345398,-0.7170105,-0.19744873,1
1.2587585,-0.2539673,11.55307,0.526474,-0.6882477,-0.27095032,1
0.8517456,-0.42634583,11.471664,0.55630493,-0.5103607,-0.26669312,1
0.6817627,-0.5819702,11.124512,0.56907654,-0.30369568,-0.22514343,1
0.9714508,-0.6585846,10.202744,0.56163025,0.038253784,-0.13671875,1
1.1270752,-0.55085754,9.891495,0.51901245,0.2619629,-0.11329651,1
1.0193329,-0.100738525,9.359985,0.4764099,0.41429138,-0.114349365,1
0.8014679,0.20092773,9.374344,0.45509338,0.45158386,-0.10795593,1
0.46627808,0.72047424,8.996063,0.45083618,0.3887329,-0.106903076,1
0.4399414,0.73483276,8.984085,0.44232178,0.25343323,-0.106903076,1
0.5668335,0.66300964,9.307312,0.44018555,0.1138916,-0.13778687,1
0.6602173,0.46669006,9.3767395,0.4476471,0.028671265,-0.17294312,1
0.6338806,0.33021545,9.556305,0.47106934,-0.020339966,-0.18466187,1
0.4399414,0.3254242,9.769394,0.51368713,0.008422852,-0.15057373,1
0.36572266,0.13150024,9.3767395,0.54777527,0.046783447,-0.09411621,1
0.339386,0.1697998,9.285751,0.54244995,0.10536194,-0.036590576,1
0.17419434,0.43556213,9.144501,0.5349884,0.2353363,0.014541626,1
0.15742493,0.7372284,8.672836,0.5051575,0.32374573,0.05609131,1
0.1717987,0.928772,8.459763,0.4806671,0.32588196,0.070999146,1
0.4399414,1.3238068,8.098236,0.35603333,0.23213196,0.07632446,1
0.61950684,1.4530945,8.258652,0.26760864,0.15223694,0.057159424,1
0.7009125,1.3549347,8.4956665,0.19624329,0.08087158,0.02519226,1
0.72724915,1.146637,8.739883,0.1504364,0.0158844,-0.00036621094,1
0.7607727,1.0269318,8.919449,0.12060547,-0.029922485,-0.012084961,1
0.73921204,1.0101624,9.048737,0.086517334,-0.06187439,-0.018478394,1
0.70809937,0.93115234,9.264206,0.076934814,-0.0544281,-0.018478394,1
0.7463989,0.9838257,9.395889,0.08331299,-0.01713562,-0.007827759,1
0.8325958,1.031723,9.5898285,0.09609985,0.01802063,0.0038909912,1
0.9379425,1.1921234,9.618546,0.11953735,0.07022095,0.008148193,1
0.9642792,1.3668976,9.649673,0.1589508,0.11921692,-0.00036621094,1
1.0887756,1.4890137,9.75502,0.2015686,0.15756226,-0.0056915283,1
1.1390533,1.5201263,9.640106,0.23777771,0.20657349,-0.011016846,1
1.1175079,1.5680237,9.201965,0.2793274,0.2864685,-0.02168274,1
1.0767975,1.7212524,8.579468,0.270813,0.31202698,-0.038726807,1
0.89723206,1.8960266,8.208374,0.22180176,0.32588196,-0.051498413,1
0.7296448,1.9223633,8.196396,0.15788269,0.34718323,-0.060028076,1
0.6027527,1.8864441,8.572281,0.121673584,0.37913513,-0.05470276,1
0.636261,1.8888397,8.907471,0.13232422,0.41003418,-0.051498413,1
0.5596466,2.020523,8.960144,0.16748047,0.3887329,-0.04937744,1
0.40403748,2.0971375,8.682419,0.19091797,0.3088379,-0.05256653,1
0.3202362,2.1976929,8.368774,0.19197083,0.16821289,-0.04724121,1
0.32263184,2.3628845,8.244278,0.16748047,0.05529785,-0.04724121,1
0.4471283,2.6118927,8.270615,0.074798584,-0.09170532,-0.057891846,1
0.65782166,2.688507,8.363983,-0.049835205,-0.16841125,-0.0738678,1
0.78471375,2.6789246,8.749451,-0.18511963,-0.21954346,-0.10583496,1
1.0241241,2.652588,10.0112,-0.2639618,-0.19078064,-0.14311218,1
1.0672302,2.5089417,10.727066,-0.26715088,-0.12365723,-0.1867981,1
1.0384979,2.4059906,10.956909,-0.2256012,-0.06933594,-0.23472595,1
0.9690552,2.3221893,11.067047,-0.16914368,-0.060806274,-0.28585815,1
0.9570923,2.2288208,11.011978,-0.12440491,-0.09384155,-0.3401947,1
0.8804779,1.9031982,11.100555,-0.09564209,-0.121536255,-0.38812256,1
0.6602173,1.6111145,11.435745,-0.07646179,-0.14283752,-0.41581726,1
0.39205933,1.4147949,11.55307,-0.05303955,-0.15242004,-0.40516663,1
0.07601929,1.4028168,11.608139,-0.023208618,-0.17160034,-0.3668213,1
-0.10594177,1.4722443,11.79248,0.014083862,-0.19290161,-0.30290222,1
0.042510986,1.6159058,11.926559,0.065216064,-0.15881348,-0.23365784,1
0.24841309,1.9127808,11.593765,0.098236084,-0.11088562,-0.18147278,1
0.52134705,2.2551575,11.29689,0.07373047,-0.076797485,-0.16975403,1
1.2060852,2.688507,10.509201,-0.03492737,-0.086380005,-0.2144928,1
1.675354,2.6861115,10.26738,-0.26608276,-0.14709473,-0.33699036,1
1.8213959,2.5687866,10.533142,-0.443985,-0.20462036,-0.4424591,1
1.778305,2.2862701,11.3016815,-0.65597534,-0.24935913,-0.5852051,1
1.4766388,1.3238068,13.082962,-0.7731476,-0.22059631,-0.6746826,1
1.1462402,0.63427734,14.450058,-0.7688904,-0.12046814,-0.70983887,1
0.6027527,0.066848755,15.206619,-0.65704346,0.0627594,-0.6927948,1
-0.053268433,-0.3712921,15.400543,-0.43226624,0.42921448,-0.55963135,1
-0.5823822,-0.5245209,14.928894,-0.2181549,0.74879456,-0.38386536,1
-0.79067993,-0.38085938,13.643204,-0.05836487,0.950119,-0.22940063,1
-0.48182678,0.13389587,12.06543,0.11528015,1.0981903,-0.048309326,1
0.119125366,0.81863403,11.04071,0.24098206,1.123764,0.070999146,1
1.0337067,1.4746399,9.841217,0.36242676,1.0151062,0.1104126,1
1.4119873,1.8218079,9.0056305,0.41567993,0.7541199,0.041168213,1
1.5436707,2.0612183,8.122177,0.41461182,0.47821045,-0.048309326,1
1.4167786,2.0588226,7.8229065,0.36029053,-0.029922485,-0.21556091,1
1.08638,1.7763062,8.146118,0.32299805,-0.3686676,-0.30290222,1
0.7583771,1.3549347,8.735092,0.30490112,-0.52101135,-0.31887817,1
0.57162476,0.9622803,9.314484,0.3027649,-0.5604248,-0.28160095,1
0.655426,0.8641205,9.714325,0.32939148,-0.37399292,-0.18572998,1
0.8230133,0.9048157,9.771774,0.3634796,-0.100234985,-0.106903076,1
0.8780823,0.9934082,9.41983,0.39544678,0.18739319,-0.03552246,1
1.0432892,1.2232513,8.900284,0.41249084,0.3929901,0.0007019043,1
1.2300262,1.570404,8.088654,0.41249084,0.6933899,0.043304443,1
1.2611542,1.862503,7.7055817,0.41249084,0.8606415,0.031585693,1
1.3186188,2.54245,6.88916,0.56695557,0.7626343,-0.09623718,1
0.5452881,2.8441315,5.0599976,0.50942993,0.23745728,-0.23579407,1
0.044906616,2.8153992,6.1158295,0.4252777,-0.1407013,-0.30503845,1
-0.014953613,2.044464,6.460602,0.34750366,-0.28771973,-0.30503845,1
-0.038894653,1.7547607,6.8939514,0.2601471,-0.42407227,-0.29864502,1
-0.026931763,1.6159058,7.1118164,0.14830017,-0.4815979,-0.2965088,1
-0.024536133,1.6877289,7.4326477,0.022598267,-0.5348511,-0.29011536,1
0.19573975,1.862503,7.8276825,-0.061553955,-0.5625458,-0.31143188,1
-0.041290283,1.2352295,8.682419,-0.054092407,-0.6051636,-0.29864502,1
0.06645203,1.0939636,9.865158,0.023666382,-0.5604248,-0.24432373,1
0.25798035,0.99819946,10.384689,0.1589508,-0.4336548,-0.18466187,1
0.34417725,1.0293274,10.592987,0.24098206,-0.35057068,-0.15696716,1
-2.7850494,1.7260284,12.869873,0.29211426,0.29605103,0.09550476,1
-2.4761963,2.2407837,12.826782,0.42314148,0.056365967,0.35862732,1
-1.4538727,3.0500336,12.584961,0.5989075,-0.27919006,0.43745422,1
-1.0588226,3.3636627,12.347946,0.6372528,-0.47520447,0.3799286,1
-0.65660095,3.5001373,12.300064,0.6191559,-0.61901855,0.28938293,1
-0.15382385,3.423523,12.132462,0.528595,-0.6658783,0.17539978,1
0.37530518,2.9542542,11.799667,0.36242676,-0.63179016,0.041168213,1
0.66978455,2.2910614,11.608139,0.11528015,-0.54338074,-0.090911865,1
0.65063477,1.5368958,11.706299,-0.18193054,-0.39743042,-0.20277405,1
0.3824768,1.0269318,11.964874,-0.48765564,-0.20994568,-0.2698822,1
-0.388443,0.27993774,13.013535,-0.7550354,0.058502197,-0.26774597,1
-1.135437,-0.17495728,13.856293,-0.88926697,0.4707489,-0.18252563,1
-1.5687866,-0.39283752,13.901779,-0.8711548,0.8936615,-0.03552246,1
-1.7220154,-0.22523499,13.21225,-0.73054504,1.2153778,0.11361694,1
-1.7507477,0.097976685,12.371887,-0.58247375,1.3357544,0.21481323,1
-1.7507477,0.097976685,12.371887,-0.58247375,1.3357544,0.21481323,1
-1.6238556,1.146637,9.343216,-0.14038086,1.1173706,0.35116577,1
-1.6741333,1.517746,8.457367,0.037521362,0.6987152,0.3341217,1
-1.7387848,1.7380066,7.952194,0.14936829,0.3141632,0.29896545,1
-1.6861115,1.8457489,7.5379944,0.23672485,-0.053359985,0.2552948,1
-1.5640106,1.9103851,7.46138,0.29637146,-0.36761475,0.20095825,1
-1.506546,1.7475891,7.6457367,0.3304596,-0.5689392,0.16368103,1
-1.4706268,1.6709747,7.8420563,0.34857178,-0.6435089,0.15196228,1
-1.4442902,1.5967407,7.9545746,0.3815918,-0.7031708,0.15409851,1
-1.2958527,1.5392914,8.009644,0.4007721,-0.6861267,0.1572876,1
-1.0444641,1.5153503,7.746292,0.41567993,-0.6328583,0.16793823,1
-0.9271393,1.6302643,7.288986,0.4018402,-0.5540314,0.17539978,1
-0.8433533,1.8122253,6.666504,0.3315277,-0.437912,0.16687012,1
-0.82658386,2.003769,6.1780853,0.24205017,-0.37187195,0.15196228,1
-0.91996765,2.2359924,5.9410553,0.16854858,-0.31541443,0.1338501,1
-0.9008026,2.379654,6.240326,0.0332489,-0.121536255,0.10083008,1
-0.93193054,2.3269806,6.4151154,-0.063690186,0.08299255,0.092300415,1
-1.1019287,2.2168427,6.6305847,-0.12654114,0.25131226,0.09764099,1
-1.1857147,2.1641693,6.673691,-0.15423584,0.32800293,0.10296631,1
-1.4107819,2.0612183,6.678467,-0.13719177,0.31523132,0.1104126,1
-1.5927277,1.996582,6.800583,-0.087127686,0.22041321,0.1295929,1
-1.6238556,1.9893951,6.913101,-0.013626099,0.10217285,0.16261292,1
-1.5975189,1.9917908,7.2099915,0.051361084,0.024414062,0.1892395,1
-1.451477,2.0708008,7.449402,0.15576172,-0.05015564,0.21588135,1
-1.4155579,2.1737518,7.667282,0.21968079,-0.045898438,0.23399353,1
-1.3940125,2.3126068,7.6529083,0.25802612,-0.0022277832,0.24783325,1
-1.4107819,2.518509,7.4206696,0.25482178,0.024414062,0.259552,1
-1.537674,2.676529,7.4111023,0.2090149,0.019088745,0.26062012,1
-1.6142883,2.846527,7.581085,0.14083862,0.0030975342,0.27980042,1
-1.5256958,2.8656769,8.09584,0.086517334,-0.013946533,0.3106842,1
-1.3916168,2.8800354,8.541168,0.037521362,-0.08956909,0.3287964,1
-1.3796539,2.9375,8.890717,-0.024276733,-0.2312622,0.32772827,1
-1.5496368,2.9398956,10.243439,-0.073272705,-0.4102173,0.31814575,1
-1.5544281,2.930313,11.45491,-0.108428955,-0.7553711,0.29577637,1
-1.3652802,2.7172394,13.504349,-0.073272705,-0.9396515,0.29577637,1
-0.893631,2.4706268,15.288025,0.023666382,-0.95669556,0.3096161,1
-0.55604553,2.317398,16.872986,0.16215515,-0.8054352,0.32453918,1
-0.06283569,2.142624,17.672653,0.33259583,-0.4943695,0.33944702,1
0.27713013,2.1569977,17.600815,0.51049805,-0.1375122,0.36714172,1
0.43515015,2.245575,16.566528,0.66389465,0.15223694,0.38311768,1
0.7248535,2.214447,15.041412,0.73526,0.33546448,0.3756714,1
0.7823181,2.4083862,13.444489,0.72247314,0.37275696,0.3341217,1
0.2819214,2.9351044,12.388641,0.64045715,0.3407898,0.31600952,1
0.45669556,3.0069275,11.371109,0.5072937,0.32695007,0.33518982,1
0.9570923,2.7842712,10.7127075,0.32299805,0.38127136,0.31175232,1
1.2755127,2.6980743,10.351181,0.1312561,0.4473114,0.23931885,1
1.2348175,2.645401,10.063873,-0.10310364,0.5687561,0.1530304,1
0.9355469,2.7411804,9.161255,-0.2490387,0.5932617,0.13066101,1
0.8948364,2.9375,8.522003,-0.46421814,0.53466797,0.11468506,1
1.2755127,2.8608856,8.124573,-0.73905945,0.25556946,0.03265381,1
1.541275,2.4850006,8.330475,-0.8668976,-0.01927185,-0.06321716,1
1.7375946,2.652588,9.230698,-0.98727417,-0.3686676,-0.19212341,1
2.1206665,2.3844452,10.480469,-1.049057,-0.59983826,-0.38493347,1
1.9554749,1.8864441,11.3615265,-1.0202942,-0.6243439,-0.54151917,1
1.6609802,1.4411316,12.007965,-0.96702576,-0.55296326,-0.615036,1
1.2826996,1.1083374,12.419769,-0.8392029,-0.2589569,-0.664032,1
0.6937256,0.952713,12.422165,-0.7049713,0.030807495,-0.65657043,1
0.028137207,0.84736633,12.010361,-0.5792694,0.23320007,-0.6224823,1
-0.39323425,1.0508728,10.849167,-0.37580872,0.50483704,-0.52342224,1
-0.4746399,1.2184601,9.89389,-0.25117493,0.61776733,-0.44778442,1
-0.25198364,1.6230774,8.155701,-0.19578552,0.60498047,-0.38812256,1
0.21009827,1.8409576,7.181259,-0.20643616,0.50697327,-0.37960815,1
0.77033997,2.3892212,6.180481,-0.30444336,0.22680664,-0.43925476,1
0.69132996,2.5999146,6.144562,-0.42694092,-0.046966553,-0.49998474,1
0.78948975,2.5592194,6.7479095,-0.5174866,-0.29837036,-0.5670929,1
0.7583771,2.4203491,7.952194,-0.53985596,-0.47200012,-0.6363373,1
0.655426,1.7763062,9.345612,-0.46955872,-0.5359192,-0.68426514,1
0.636261,1.4794312,9.944168,-0.33000183,-0.50608826,-0.70983887,1
0.5045929,1.031723,10.36554,-0.13719177,-0.40914917,-0.7173004,1
0.29629517,0.81144714,10.291321,0.067337036,-0.25575256,-0.6917267,1
0.047286987,0.8425751,9.812485,0.25056458,-0.033111572,-0.63313293,1
-0.13705444,1.2017059,8.368774,0.3773346,0.17034912,-0.5532379,1
-0.170578,1.5632324,7.0399933,0.43486023,0.27687073,-0.48080444,1
-0.20410156,1.8648987,6.2666626,0.4337921,0.29605103,-0.4371338,1
-0.18493652,2.324585,5.4239044,0.385849,0.23213196,-0.4147644,1
-0.1777649,2.6238556,5.464615,0.3219452,0.14691162,-0.41049194,1
-0.12748718,2.834549,5.632202,0.2750702,0.038253784,-0.4147644,1
-0.13465881,2.85849,6.0487976,0.24417114,-0.07572937,-0.44032288,1
-0.32859802,2.7076569,6.5850983,0.2324524,-0.16841125,-0.4467163,1
-0.44830322,2.669342,7.109436,0.22819519,-0.18971252,-0.4179535,1
-0.45788574,2.6573792,7.7367096,0.20050049,-0.13858032,-0.36895752,1
-0.462677,2.5759735,8.280197,0.1504364,-0.033111572,-0.34231567,1
1.3210144,3.102707,8.423843,0.09609985,0.024414062,-0.37535095,1
1.0001831,3.3277588,9.149292,0.067337036,-0.053359985,-0.5180969,1
-0.13705444,3.6390076,9.901062,0.07054138,0.057434082,-0.6746826,1
-1.3748627,3.6988525,9.93219,0.079055786,0.05317688,-0.7812042,1
-1.9590454,3.5767517,10.162033,0.027923584,0.008422852,-0.792923,1
-1.755539,3.3947906,10.7127075,-0.061553955,-0.013946533,-0.75990295,1
-1.8513031,3.198471,11.505188,-0.12866211,-0.01499939,-0.7151642,1
-2.1625519,2.9015808,12.350342,-0.1478424,-0.04057312,-0.7023773,1
-2.4905548,2.2120514,13.118881,-0.10522461,-0.107681274,-0.69065857,1
-2.7371674,1.6637878,13.841919,-0.013626099,-0.17478943,-0.65444946,1
-3.1441803,1.2783203,14.287247,0.10888672,-0.14923096,-0.5692291,1
-3.5655518,1.0197449,14.488358,0.23884583,-0.10874939,-0.41156006,1
-3.5176697,1.0077667,14.45723,0.3965149,-0.05229187,-0.1207428,1
-3.1968536,1.225647,14.390198,0.5019684,0.0393219,0.10722351,1
-2.696457,1.4842224,13.794037,0.5807953,0.110702515,0.28938293,1
-2.1290283,1.6972961,13.037476,0.6266022,0.12986755,0.4129486,1
-1.7507477,2.087555,12.467651,0.64045715,0.15116882,0.47261047,1
-1.0253143,2.221634,11.96727,0.6287384,0.1842041,0.47154236,1
-0.8289795,2.822586,11.565033,0.59358215,0.22361755,0.3756714,1
-1.4706268,3.368454,11.423782,0.55630493,0.22254944,0.29151917,1
-2.0667877,3.7898407,11.081406,0.5062256,0.17248535,0.2510376,1
-2.4833832,3.9550323,10.516373,0.42633057,0.0627594,0.27659607,1
-2.344513,3.653366,9.225906,0.22819519,-0.22698975,0.3383789,1
-1.3054352,2.8297577,8.730301,-0.092453,-0.62327576,0.31921387,1
-0.18016052,1.625473,10.296112,-0.40882874,-0.93325806,0.22013855,1
-0.2280426,1.1514282,11.5985565,-0.6123047,-0.9812012,0.13278198,1
-0.82658386,0.39964294,13.284073,-0.68685913,-0.7457733,0.13172913,1
-1.2000885,0.109954834,13.480392,-0.6314697,-0.35908508,0.23931885,1
-1.4802094,0.030944824,12.769318,-0.5057678,0.0861969,0.388443,1
-1.5759735,0.27035522,11.806854,-0.34918213,0.50483704,0.5333252,1
-1.7028656,0.87849426,10.078232,-0.19151306,0.8201599,0.64198303,1
-1.6909027,1.359726,8.991272,-0.06687927,0.98313904,0.69950867,1
-1.70047,1.8840485,7.3009644,-0.012557983,0.9447937,0.7154846,1
-1.6861115,2.4850006,5.8500824,-0.024276733,0.7594452,0.70376587,1
-1.6190643,2.8489075,5.3880005,-0.07434082,0.49739075,0.66116333,1
-1.6310425,3.064392,5.4286957,-0.13398743,0.21296692,0.5940399,1
-1.6717377,3.01651,5.785431,-0.17660522,-0.025665283,0.52160645,1
-1.6861115,2.7052612,6.2618866,-0.20111084,-0.20568848,0.46089172,1
-1.6238556,2.2719116,6.7838135,-0.20429993,-0.30688477,0.44277954,1
-1.3413391,1.9941864,7.3847656,-0.18832397,-0.3399048,0.44596863,1
-1.0372772,1.9271545,7.830078,-0.15423584,-0.2909088,0.45236206,1
-0.8457489,2.0923462,7.8396606,-0.12121582,-0.21208191,0.45768738,1
-0.625473,2.2240295,7.648117,-0.06794739,-0.14816284,0.44810486,1
-0.4554901,2.3892212,7.1429443,-0.021072388,-0.18118286,0.4555664,1
-0.29267883,2.70047,7.0567627,-0.0178833,-0.11727905,0.36820984,1
-0.71406555,2.6909027,6.6808624,-0.014678955,-0.11727905,0.30429077,1
-0.85292053,2.7746887,6.6688995,0.013015747,-0.1875763,0.30003357,1
-0.759552,2.8201904,6.7239685,0.00022888184,-0.23019409,0.24357605,1
-0.79307556,2.6669617,7.1644897,0.018341064,-0.2823944,0.2084198,1
-0.7380066,2.4897919,7.777405,0.06626892,-0.27067566,0.19137573,1
-0.61351013,2.2838898,8.366379,0.1355133,-0.16946411,0.19351196,1
-0.5967407,1.972641,8.471725,0.19197083,-0.004348755,0.20523071,1
-0.7188568,1.7787018,8.531586,0.22605896,0.22894287,0.24996948,1
-0.8074341,1.7236328,8.471725,0.21115112,0.35144043,0.28405762,1
-0.7284241,1.8218079,8.675232,0.15576172,0.46542358,0.32666016,1
-0.7236328,2.0157318,8.996063,0.08544922,0.5410614,0.3575592,1
-0.65660095,2.135437,9.405472,0.008758545,0.5549164,0.37886047,1
-0.39323425,2.3078308,10.1237335,-0.06687927,0.48353577,0.3767395,1
-0.0796051,2.2719116,10.906631,-0.14038086,0.35144043,0.34158325,1
0.10714722,2.111496,11.835587,-0.15956116,0.27687073,0.30429077,1
0.21488953,2.0013733,12.9895935,-0.15423584,0.15649414,0.23825073,1
0.27235413,1.7810974,14.10289,-0.096710205,0.05104065,0.16474915,1
0.08799744,1.3357849,14.8953705,0.04284668,0.0020446777,0.09976196,1
-0.09875488,0.89764404,15.1707,0.14616394,0.014816284,0.09550476,1
-0.38606262,0.54808044,14.83313,0.29743958,0.054229736,0.1381073,1
-0.5345001,0.3924713,14.0933075,0.38798523,0.05317688,0.20735168,1
-0.5680084,0.5672455,13.102112,0.4284668,0.016952515,0.28405762,1
-0.5105591,0.96707153,12.098938,0.42633057,-0.043762207,0.3341217,1
-0.29507446,1.4483032,11.450119,0.39117432,-0.17266846,0.3895111,1
0.10714722,1.9079895,11.038315,0.34643555,-0.21208191,0.40122986,1
0.6171112,2.233612,10.494827,0.2835846,-0.21954346,0.36502075,1
1.4766388,2.8321533,9.4557495,0.17173767,-0.26000977,0.24996948,1
1.9267426,3.229599,8.969727,-0.009353638,-0.37826538,0.082717896,1
2.5157166,3.3588867,9.029572,-0.20750427,-0.49543762,-0.12927246,1
2.9538574,3.1673431,9.185196,-0.41096497,-0.5934448,-0.37960815,1
2.9897614,2.7148438,9.709534,-0.6165619,-0.67440796,-0.6405945,1
2.6856995,2.099533,10.253021,-0.7987213,-0.691452,-0.8472595,1
1.912384,1.031723,11.478851,-0.9233551,-0.60302734,-0.96443176,1
1.4119873,0.5720215,12.041489,-0.95957947,-0.4112854,-0.9953308,1
0.7583771,0.13389587,12.508347,-0.9190979,-0.15029907,-0.95059204,1
0.032928467,-0.088775635,12.244995,-0.81362915,0.13093567,-0.83128357,1
-0.21606445,0.033340454,11.502792,-0.6921997,0.37062073,-0.67149353,1
-0.19451904,0.47625732,10.513977,-0.5664978,0.51976013,-0.5202179,1
-0.23521423,0.9910126,9.482086,-0.46316528,0.55596924,-0.3998413,1
-0.2783203,1.4937897,8.780579,-0.38645935,0.4941864,-0.3018341,1
0.08081055,2.0971375,7.820511,-0.34490967,0.31095886,-0.23365784,1
0.6530304,2.506546,7.576294,-0.315094,0.06489563,-0.21342468,1
1.3401642,2.6549835,7.576294,-0.28633118,-0.1843872,-0.24858093,1
1.7567596,2.851303,7.8085327,-0.25756836,-0.3921051,-0.34658813,1
1.9602661,2.8968048,8.110199,-0.22880554,-0.5689392,-0.46376038,1
2.0368805,2.7387848,8.653687,-0.18725586,-0.6861267,-0.615036,1
2.0081482,2.554428,9.161255,-0.16275024,-0.6637573,-0.7013092,1
1.9339294,2.1809387,9.2426605,-0.120147705,-0.5817261,-0.7961273,1
1.5029755,1.9199677,9.529968,-0.06687927,-0.4613495,-0.86642456,1
1.2132721,1.7260284,9.450958,0.023666382,-0.17478943,-0.8983917,1
0.48542786,1.735611,9.034363,0.0758667,0.0052337646,-0.8717499,1
0.068847656,1.8864441,8.136536,0.12593079,0.17567444,-0.792923,1
0.061660767,1.9510956,7.30336,0.14616394,0.25131226,-0.7396698,1
0.011383057,1.9893951,6.7957916,0.15788269,0.24172974,-0.70983887,1
-0.13705444,1.9917908,6.465393,0.16748047,0.20018005,-0.67149353,1
-0.21366882,2.0803833,6.2427216,0.1823883,0.122406006,-0.63845825,1
-0.2855072,2.159378,6.3217316,0.21328735,-0.009674072,-0.5915985,1
-0.26634216,2.2527618,6.5036926,0.24310303,-0.10342407,-0.56495667,1
-0.0005950928,2.214447,6.7359314,0.28572083,-0.22380066,-0.5468445,1
0.037719727,2.2910614,6.891556,0.31129456,-0.31115723,-0.5457916,1
0.028137207,2.554428,7.28421,0.29743958,-0.5881195,-0.5947876,1
-0.2855072,2.7866669,8.311325,0.29530334,-0.6871948,-0.60224915,1
-0.5392914,2.9997559,9.307312,0.30915833,-0.7883911,-0.58306885,1
-0.70448303,3.0763702,10.24823,0.3272705,-0.8427124,-0.53726196,1
-0.7164612,3.0907288,11.246613,0.33685303,-0.8853302,-0.5021057,1
-0.50816345,2.85849,12.355118,0.35176086,-0.9396515,-0.4658966,1
-0.23043823,2.5711823,13.703064,0.3965149,-0.92474365,-0.47122192,1
-0.31422424,2.2910614,15.182678,0.49131775,-0.77241516,-0.4786682,1
-0.4746399,1.8170166,16.154724,0.6287384,-0.4858551,-0.45524597,1
-0.70448303,1.5584412,15.912903,0.7363281,-0.17160034,-0.3913269,1
-0.91278076,1.3764801,15.161133,0.7714844,0.10217285,-0.30822754,1
-1.1258698,1.3190155,14.447662,0.74591064,0.31948853,-0.20703125,1
-1.2383881,1.4890137,13.557007,0.68733215,0.5144348,-0.10050964,1
-1.2719116,1.5608368,13.066208,0.61169434,0.6667633,-0.0067596436,1
-1.2168427,1.5799866,12.379059,0.5222168,0.7157593,0.03691101,1
-1.8106079,1.8601074,12.039093,0.46681213,0.7647705,0.06993103,1
-2.4426727,2.1689606,11.581802,0.43165588,0.79885864,0.13598633,1
-2.5935059,2.3772583,10.679184,0.36775208,0.70510864,0.23078918,1
-3.0723572,2.6621704,9.9729,0.2324524,0.4153595,0.33944702,1
-2.617447,2.6956787,9.747833,0.0332489,0.0126953125,0.45768738,1
-1.6717377,2.3221893,10.535538,-0.18939209,-0.4613495,0.5194855,1
-0.383667,1.4363403,13.061417,-0.31828308,-0.7638855,0.4864502,1
0.09039307,0.9072113,14.806793,-0.2916565,-0.7628174,0.4225464,1
0.31784058,0.38049316,15.726166,-0.1478424,-0.5540314,0.37353516,1
0.3034668,0.090789795,15.592087,0.059890747,-0.24510193,0.34902954,1
0.119125366,-0.13426208,14.600891,0.30490112,0.15437317,0.34902954,1
-0.0077667236,-0.1270752,12.836365,0.51901245,0.57196045,0.41082764,1
0.023345947,0.3062744,10.748611,0.6500397,0.8659668,0.44171143,1
0.047286987,0.6797638,8.792557,0.6851959,1.0353394,0.4268036,1
-0.053268433,1.1322784,7.0615387,0.64364624,1.0502625,0.3852539,1
-0.2783203,1.6685791,5.8309174,0.5222168,0.94692993,0.30856323,1
-0.43873596,2.0372772,5.069565,0.36029053,0.7679596,0.21055603,1
-0.44351196,2.396408,4.849304,0.1823883,0.5368042,0.11148071,1
-0.6087189,2.6789246,5.1581573,0.014083862,0.31202698,0.024124146,1
-0.9654541,2.7914581,5.9865417,-0.12333679,0.15223694,-0.05256653,1
-1.1857147,2.6142883,6.776642,-0.22027588,0.06489563,-0.090911865,1
-1.3604889,2.2719116,7.310547,-0.2724762,0.054229736,-0.07814026,1
-1.2240295,1.9415131,7.63855,-0.30230713,0.11921692,-0.048309326,1
-0.9917908,1.5871735,7.7367096,-0.3193512,0.19592285,-0.0025024414,1
-0.9941864,1.407608,7.9258575,-0.3193512,0.24810791,0.059280396,1
-0.85292053,1.3692932,8.083862,-0.301239,0.345047,0.14663696,1
-0.89123535,1.4818268,8.031189,-0.28205872,0.43240356,0.1849823,1
-0.98220825,1.6829376,7.861206,-0.254364,0.5644989,0.2276001,1
-1.245575,1.8361664,7.54039,-0.23413086,0.661438,0.26487732,1
-1.5759735,1.8960266,7.3871613,-0.21176147,0.65397644,0.29257202,1
-1.664566,1.9463043,7.315323,-0.17553711,0.62628174,0.34051514,1
-1.6717377,1.9439087,7.181259,-0.14891052,0.60391235,0.3799286,1
-1.4466858,1.9367218,6.956192,-0.12440491,0.56663513,0.4044342,1
-1.3652802,2.0372772,6.8508606,-0.11268616,0.5218811,0.42147827,1
-1.324585,2.0372772,6.7886047,-0.108428955,0.46009827,0.4363861,1
-1.6023102,2.044464,6.8628235,-0.11907959,0.43240356,0.4598236,1
-1.6142883,2.1067047,6.8939514,-0.13719177,0.39938354,0.49710083,1
-1.3940125,2.1234741,7.241104,-0.16062927,0.35890198,0.5248108,1
-0.86968994,2.159378,7.741501,-0.1670227,0.35676575,0.4875183,1
-1.2743073,2.3126068,8.306534,-0.13612366,0.391922,0.468338,1
-1.6621704,2.6932983,8.553131,-0.10417175,0.43240356,0.47579956,1
-1.6621704,2.8872223,8.567505,-0.08924866,0.43133545,0.48112488,1
-1.7100525,2.968628,8.680023,-0.09031677,0.40150452,0.49072266,1
-1.7698975,2.9758148,8.694397,-0.08392334,0.30137634,0.5098877,1
-2.028473,2.9901733,8.952957,-0.06794739,0.13519287,0.5301361,1
-2.2056427,3.0045319,9.115768,-0.04876709,-0.044830322,0.5556946,1
-2.2008667,2.9829865,9.350403,-0.023208618,-0.2578888,0.5983124,1
-2.0069275,2.930313,9.771774,0.0023651123,-0.46987915,0.6302643,1
-1.6621704,2.7890625,10.308075,0.03538513,-0.6200714,0.6409149,1
-1.2575531,2.731598,10.834808,0.07054138,-0.66908264,0.6494446,1
-0.9463043,2.6382294,11.270554,0.11102295,-0.6360626,0.65263367,1
-0.58717346,2.537674,11.521942,0.1504364,-0.55189514,0.64730835,1
-0.47224426,2.6861115,11.758972,0.18771362,-0.484787,0.6345215,1
-0.22085571,2.803421,12.161194,0.23777771,-0.46774292,0.5993805,1
0.08081055,2.7052612,12.273727,0.3027649,-0.44111633,0.55036926,1
0.46388245,2.6047058,12.326401,0.35282898,-0.39424133,0.48965454,1
0.655426,2.3197937,12.14444,0.3815918,-0.3377838,0.4321289,1
0.6649933,2.1713562,12.022324,0.3773346,-0.2632141,0.37886047,1
0.6147156,2.2096558,11.7326355,0.3262024,-0.16841125,0.34690857,1
0.50219727,2.3054352,11.59137,0.24310303,-0.09916687,0.33625793,1
0.418396,2.475418,11.67038,0.15255737,-0.04270935,0.3373108,1
0.49261475,2.6909027,11.579407,0.07373047,0.056365967,0.33198547,1
0.5668335,2.961441,11.102951,-0.01574707,0.12879944,0.29896545,1
0.8158264,3.1050873,10.638489,-0.12440491,0.1138916,0.23931885,1
1.2300262,3.3397217,10.339203,-0.24691772,0.010559082,0.12638855,1
1.675354,3.356491,10.20752,-0.39071655,-0.14709473,-0.039779663,1
1.9913788,3.1840973,10.34639,-0.54945374,-0.36547852,-0.24005127,1
2.0225067,2.7818756,10.794098,-0.71243286,-0.6094208,-0.46269226,1
1.8956146,2.1234741,11.797272,-0.85092163,-0.85868835,-0.65763855,1
1.7184448,1.4506989,13.164368,-0.91482544,-1.0770721,-0.8131714,1
1.6130981,0.8856659,14.6775055,-0.86476135,-1.1122284,-0.8717499,1
1.4455109,0.45231628,15.735733,-0.6538391,-0.9598999,-0.9111786,1
1.1342621,0.064453125,15.632782,-0.48446655,-0.7500458,-0.88453674,1
0.75598145,-0.15341187,14.411743,-0.27993774,-0.42619324,-0.78759766,1
0.4590912,-0.060043335,12.824387,-0.14570618,-0.13537598,-0.6416626,1
0.40881348,0.29908752,11.050278,-0.087127686,0.07766724,-0.47654724,1
0.6027527,0.9742584,9.740662,-0.10310364,0.19165039,-0.3199463,1
0.83499146,1.7212524,8.567505,-0.14251709,0.19378662,-0.2698822,1
1.1845398,2.2743073,7.782196,-0.21495056,0.11921692,-0.26029968,1
1.6585846,2.7842712,7.2458954,-0.33319092,-0.05015564,-0.33486938,1
1.8477325,2.8776398,7.3129425,-0.41522217,-0.16946411,-0.4094391,1
2.1733398,2.7531433,7.339279,-0.5611572,-0.37506104,-0.58306885,1
2.0488434,2.5568237,7.8468475,-0.6719513,-0.4858551,-0.72262573,1
1.7591553,2.3988037,8.308929,-0.73905945,-0.49757385,-0.80677795,1
1.3521271,2.0181274,8.639328,-0.79019165,-0.41874695,-0.8493805,1
1.0169525,1.8864441,8.909866,-0.79551697,-0.26960754,-0.85258484,1
0.91160583,1.8242035,8.88353,-0.78486633,-0.0544281,-0.8749542,1
0.6147156,1.541687,8.68721,-0.73161316,0.11921692,-0.8951874,1
0.14067078,1.5584412,8.52919,-0.64212036,0.27368164,-0.88560486,1
-0.13227844,1.5153503,8.11499,-0.5292053,0.40257263,-0.8408661,1
-0.32380676,1.4937897,7.7534637,-0.41522217,0.485672,-0.7620392,1
-0.5536499,1.5871735,7.0759125,-0.31721497,0.4909973,-0.66722107,1
-0.6709595,1.5943604,6.6808624,-0.22454834,0.39405823,-0.56069946,1
-0.58477783,1.7140656,6.434265,-0.14465332,0.25238037,-0.4648285,1
-0.40760803,1.8648987,6.302582,-0.07966614,0.110702515,-0.39665222,1
-0.33338928,1.9822083,6.3576508,-0.014678955,-0.02671814,-0.34552002,1
-0.16818237,2.0899506,6.5659485,0.051361084,-0.13964844,-0.2933197,1
-0.022140503,2.1378326,6.853256,0.11741638,-0.2110138,-0.24858093,1
0.20770264,2.269516,7.176468,0.18345642,-0.27493286,-0.22193909,1
0.37051392,2.2790985,7.581085,0.25909424,-0.33032227,-0.22193909,1
0.43275452,2.2647247,8.007248,0.34217834,-0.35908508,-0.23686218,1
0.40164185,2.3533173,8.407089,0.43804932,-0.35375977,-0.25390625,1
0.3034668,2.4658356,8.677628,0.5275421,-0.3175354,-0.2698822,1
0.22924805,2.5233002,8.852402,0.60209656,-0.27919006,-0.27734375,1
-0.06523132,2.640625,8.792557,0.64152527,-0.24617004,-0.28692627,1
-0.12748718,2.7411804,8.478912,0.63513184,-0.2312622,-0.28266907,1
-0.14424133,2.9015808,8.167664,0.5722809,-0.27493286,-0.2922516,1
-0.29507446,3.0117188,8.167664,0.46255493,-0.37826538,-0.30717468,1
-0.33338928,3.064392,8.217941,0.4284668,-0.40596008,-0.30610657,1
-0.31422424,3.2439575,9.189987,0.20689392,-0.5604248,-0.28373718,1
-0.20170593,3.2511444,10.013596,0.1227417,-0.54444885,-0.26348877,1
-0.017349243,3.210434,10.806076,0.07054138,-0.49118042,-0.24858093,1
0.1717987,3.2559357,11.146057,0.05029297,-0.391037,-0.24964905,1
0.2699585,3.344513,11.742203,0.03112793,-0.25149536,-0.2688141,1
0.2412262,3.277481,12.003174,0.0076904297,-0.1375122,-0.28053284,1
0.09039307,3.2487488,12.350342,-0.044509888,0.02973938,-0.30078125,1
-0.4123993,3.1386108,12.841141,-0.06581116,0.12561035,-0.3018341,1
-0.5943451,2.9279175,13.54744,-0.061553955,0.27687073,-0.27627563,1
-0.8577118,2.561615,13.992752,-0.024276733,0.38446045,-0.2507019,1
-1.1067047,2.1522064,14.26091,0.0524292,0.57940674,-0.2102356,1
-1.372467,1.7715302,14.021484,0.09397888,0.6720886,-0.19212341,1
-2.0141144,1.273529,13.655182,0.12911987,0.7828827,-0.12927246,1
-2.653366,0.9431305,13.475616,0.14190674,0.85317993,-0.02168274,1
-3.2662811,0.71328735,13.240982,0.14830017,0.9160309,0.14663696,1
-3.776245,0.6941376,12.917755,0.15788269,0.9362793,0.36288452,1
-3.7020264,0.928772,12.412582,0.17492676,0.88619995,0.5844574,1
-3.0939026,1.0436859,11.900223,0.17066956,0.7168274,0.77194214,1
-1.6501923,1.1753693,11.169998,0.090774536,0.3695526,0.85609436,1
0.31784058,1.6350555,11.366318,-0.054092407,-0.10874939,0.81455994,1
1.2420044,2.0013733,12.3647,-0.17979431,-0.4112854,0.704834,1
2.240387,2.214447,14.071762,-0.30763245,-0.60302734,0.41508484,1
2.4654388,2.0348816,15.1874695,-0.2969818,-0.4581604,0.15196228,1
1.7328186,0.9718628,15.805176,-0.21495056,-0.11088562,-0.055770874,1
1.3186188,0.5313263,15.520264,-0.13719177,0.20657349,-0.1399231,1
0.09996033,-0.22523499,13.801224,-0.020004272,0.7445221,-0.14099121,1
-1.1210785,-0.53408813,11.8164215,0.024734497,1.1184387,-0.024871826,1
-1.4993591,-0.56521606,10.236252,0.014083862,1.346405,0.15409851,1
-1.8728485,-0.17974854,8.167664,-0.071136475,1.3570557,0.33625793,1
-1.7603302,0.30867004,7.2028046,-0.17874146,1.2143097,0.5024414,1
-1.6430054,0.5672455,7.030426,-0.2724762,0.9724884,0.62387085,1
-1.1019287,1.2017059,6.9825287,-0.31721497,0.66889954,0.67500305,1
-0.4267578,1.6446381,7.2434998,-0.31082153,0.33546448,0.655838,1
0.035324097,1.862503,7.662491,-0.24264526,0.025466919,0.575943,1
0.33699036,2.0013733,8.076691,-0.13186646,-0.20675659,0.4640808,1
0.46388245,2.0660095,8.234711,-0.008285522,-0.34310913,0.3522339,1
0.47106934,2.0181274,8.284988,0.11102295,-0.4070282,0.24890137,1
0.46627808,1.9343262,8.148514,0.19836426,-0.42726135,0.16474915,1
0.13108826,1.7643433,7.741501,0.2484436,-0.40489197,0.104019165,1
-0.17297363,1.5560455,7.370392,0.26228333,-0.36973572,0.07846069,1
-0.3980255,1.4770355,7.0160522,0.23352051,-0.31648254,0.068878174,1
-0.47703552,1.5321045,6.695236,0.15788269,-0.22592163,0.06674194,1
-0.82658386,1.5105591,6.458206,0.100357056,-0.15881348,0.07420349,1
-1.111496,1.4578857,6.302582,0.027923584,-0.065078735,0.10508728,1
-1.2024841,1.601532,6.355255,-0.030670166,0.0052337646,0.14237976,1
-1.2910614,1.680542,6.4989014,-0.06794739,0.040390015,0.17219543,1
-1.3413391,1.6709747,6.5539703,-0.071136475,0.036132812,0.19137573,1
-1.5256958,1.6733551,6.6856537,-0.040252686,0.0126953125,0.22120667,1
-1.5927277,1.6757507,6.762268,0.01940918,-0.036315918,0.26062012,1
-1.7124481,1.7332153,6.834091,0.102493286,-0.121536255,0.32347107,1
-1.7770844,1.8648987,6.9777527,0.15362549,-0.16201782,0.3618164,1
-1.7986298,2.0372772,7.0519714,0.20796204,-0.20568848,0.40655518,1
-1.8082123,2.1138916,7.06633,0.24523926,-0.24191284,0.44917297,1
-1.8058167,2.2862701,7.1309814,0.25909424,-0.27919006,0.49391174,1
-1.7172394,2.4299316,7.2458954,0.25376892,-0.34417725,0.52693176,1
-1.5256958,2.6286469,7.7127686,0.22712708,-0.38571167,0.54611206,1
-1.2551575,2.7818756,8.380753,0.20263672,-0.4070282,0.54823303,1
-0.93193054,2.9566498,9.213928,0.19303894,-0.4197998,0.5375824,1
-0.59913635,3.064392,9.874725,0.19197083,-0.45176697,0.4917755,1
-0.38127136,3.1625519,10.74382,0.19197083,-0.52526855,0.42147827,1
-0.26634216,3.1721344,11.833191,0.19303894,-0.5636139,0.33198547,1
-0.2902832,3.0093231,13.149994,0.20689392,-0.52845764,0.27552795,1
-0.59913635,2.652588,14.1675415,0.24949646,-0.37826538,0.2361145,1
-0.8601074,2.1713562,14.670319,0.31767273,-0.074661255,0.27659607,1
-0.86250305,1.9199677,14.564972,0.36029053,0.16395569,0.35116577,1
-0.8888397,1.8912354,14.28006,0.39117432,0.3642273,0.43319702,1
-0.6446228,1.8553162,13.612076,0.4050293,0.51976013,0.5024414,1
-0.43873596,1.9630585,13.082962,0.39756775,0.5911255,0.54823303,1
-0.15621948,2.056427,12.28569,0.36135864,0.57621765,0.56954956,1
0.12869263,2.1929016,12.022324,0.31767273,0.5080414,0.5610199,1
0.5692291,2.427536,11.694321,0.27400208,0.4164276,0.5141449,1
0.7248535,2.3078308,11.416595,0.23139954,0.28007507,0.42466736,1
0.7176666,2.2910614,11.330399,0.19091797,0.12561035,0.33093262,1
0.4399414,2.4610596,11.392654,0.18878174,-0.022460938,0.29151917,1
0.35136414,2.5903473,11.179565,0.17706299,-0.09277344,0.26913452,1
0.38008118,2.6573792,10.480469,0.10675049,-0.18971252,0.24571228,1
1.1797485,2.803421,9.944168,-0.008285522,-0.36654663,0.18179321,1
1.7328186,2.8177948,9.81488,-0.16062927,-0.5923767,0.05821228,1
2.0895538,2.8321533,9.776566,-0.3470459,-0.85336304,-0.11222839,1
2.4079742,2.5041504,10.50441,-0.55477905,-1.1378021,-0.30078125,1
2.4319153,1.9822083,12.051056,-0.71136475,-1.3252869,-0.4648285,1
2.4391022,1.3980255,13.66954,-0.7475891,-1.3050385,-0.5852051,1
2.4079742,0.8353882,14.734955,-0.6762085,-1.1015778,-0.6682892,1
2.0249023,0.34217834,15.110855,-0.49832153,-0.7585602,-0.6938629,1
1.5388794,0.033340454,14.490753,-0.2778015,-0.32286072,-0.6416626,1
1.0648346,-0.038497925,13.011139,-0.07220459,0.087265015,-0.50956726,1
0.83499146,0.25120544,11.112534,0.06414795,0.38233948,-0.34231567,1
0.94511414,0.6869507,9.276184,0.11314392,0.4931183,-0.19744873,1
1.1199036,1.2902832,8.124573,0.09716797,0.42814636,-0.10157776,1
1.541275,1.9247589,7.5116577,0.06201172,0.28858948,-0.06428528,1
2.0249023,2.3748627,7.2818146,0.01940918,0.10110474,-0.09623718,1
2.6138763,2.7172394,7.2028046,-0.002960205,-9.1552734E-05,-0.16442871,1
3.0639954,2.9566498,7.2267456,-0.03704834,-0.12046814,-0.30717468,1
3.1621552,2.9997559,7.229141,-0.05836487,-0.1918335,-0.44032288,1
3.2818604,2.8944092,7.38237,-0.10096741,-0.24617004,-0.66296387,1
3.0041351,2.5807648,7.3871613,-0.13612366,-0.2312622,-0.8195648,1
2.54924,2.2790985,7.430252,-0.17660522,-0.19078064,-0.92715454,1
1.9842072,1.9439087,7.442215,-0.21282959,-0.09063721,-0.9804077,1
1.5221252,1.7380066,7.38237,-0.24052429,0.011627197,-0.9676361,1
1.1127167,1.6159058,7.3967285,-0.25224304,0.120285034,-0.92715454,1
0.83976746,1.546463,7.22435,-0.2532959,0.22787476,-0.86216736,1
0.66259766,1.6278687,6.9585876,-0.2490387,0.28007507,-0.8089142,1
0.6338806,1.7284241,6.6018524,-0.23092651,0.29711914,-0.7417908,1
0.6865387,1.9941864,6.3289185,-0.20750427,0.25663757,-0.67575073,1
0.71287537,2.1091003,6.1349945,-0.18618774,0.1842041,-0.6512451,1
0.7009125,2.3652802,6.0655518,-0.16488647,0.10110474,-0.6427307,1
0.6530304,2.4203491,6.1637115,-0.14144897,0.019088745,-0.63313293,1
0.552475,2.537674,6.2140045,-0.110565186,-0.05015564,-0.6203613,1
0.497406,2.554428,6.350464,-0.09352112,-0.074661255,-0.61608887,1
0.42079163,2.640625,6.386383,-0.06262207,-0.15242004,-0.58839417,1
0.34417725,2.7148438,6.5898895,-0.047714233,-0.2312622,-0.5734863,1
0.13587952,2.9015808,7.138153,-0.024276733,-0.35694885,-0.5468445,1
0.008987427,3.0045319,8.083862,0.027923584,-0.45283508,-0.52342224,1
0.08081055,3.0452423,8.663269,0.11102295,-0.52420044,-0.50849915,1
0.26756287,3.3038177,9.206757,0.21008301,-0.550827,-0.4935913,1
0.33699036,3.4043732,9.336029,0.28253174,-0.5593567,-0.488266,1
0.43037415,3.5863342,9.18042,0.30490112,-0.5636139,-0.48399353,1
0.43754578,3.6940613,9.142105,0.27825928,-0.59558105,-0.48612976,1
0.42318726,3.8832092,9.26181,0.20368958,-0.6072998,-0.49465942,1
0.4590912,4.055588,9.726288,0.10675049,-0.59558105,-0.49998474,1
0.53092957,4.1130524,10.296112,0.0034179688,-0.5604248,-0.51275635,1
0.7823181,4.1681213,11.0095825,-0.08180237,-0.50183105,-0.5298004,1
0.91877747,4.1178436,11.641647,-0.13186646,-0.3878479,-0.55856323,1
0.9786377,4.108261,12.309631,-0.15316772,-0.2429657,-0.59265137,1
0.89723206,3.8999634,13.003952,-0.14038086,-0.100234985,-0.617157,1
0.87568665,3.6581573,13.219437,-0.108428955,0.038253784,-0.63313293,1
0.7727356,3.5121155,13.396606,-0.06687927,0.16609192,-0.63101196,1
0.55007935,3.3421173,13.66954,-0.0008392334,0.26515198,-0.60650635,1
0.3106537,3.229599,14.100494,0.100357056,0.3652954,-0.5628357,1
-0.09635925,3.1050873,14.304001,0.23991394,0.4899292,-0.5010376,1
-0.5440674,2.9207458,14.1819,0.40396118,0.5975189,-0.4222107,1
-0.9223633,2.7699127,13.523499,0.55630493,0.6678314,-0.30929565,1
-1.2910614,2.5951233,12.762146,0.6564331,0.6912689,-0.17294312,1
-1.3940125,2.5256958,11.928955,0.6926575,0.6752777,-0.027008057,1
-1.482605,2.5496368,11.189148,0.6468506,0.60284424,0.108291626,1
-1.4466858,2.6861115,10.937759,0.5307312,0.5272064,0.22653198,1
-1.2527618,3.0691833,10.887482,0.3592224,0.50271606,0.31921387,1
-0.89842224,3.435501,10.777344,0.14723206,0.46116638,0.35435486,1
-0.15382385,3.4761963,10.789322,-0.094573975,0.32162476,0.3021698,1
0.7440033,3.2750854,11.289703,-0.35343933,0.0627594,0.15835571,1
1.0720062,2.5592194,12.517929,-0.6250763,-0.2387085,-0.09837341,1
0.9977875,1.577591,13.992752,-0.71136475,-0.29730225,-0.21981812,1
0.75598145,0.5792084,15.067749,-0.7049713,-0.21633911,-0.33486938,1
0.13587952,-0.47184753,15.687851,-0.56755066,0.011627197,-0.33592224,1
-0.16578674,-0.9291382,15.477158,-0.41203308,0.25238037,-0.2688141,1
-0.62786865,-1.1709442,14.332733,-0.17553711,0.59858704,-0.116485596,1
-0.86250305,-1.0584259,12.678345,0.086517334,0.92562866,0.11468506,1
-0.85292053,-0.60113525,10.638489,0.21968079,1.0182953,0.2403717,1
-0.7787018,0.076431274,8.6297455,0.3070221,0.8617096,0.41827393,1
-0.383667,0.8425751,7.315323,0.29743958,0.65930176,0.48005676,1
0.11193848,1.4243622,6.65213,0.256958,0.23852539,0.47261047,1
0.54289246,1.9127808,6.5036926,0.23139954,-0.14709473,0.38206482,1
0.9235687,2.2359924,7.0040894,0.24630737,-0.5092926,0.23825073,1
1.2060852,2.4562683,7.6170044,0.3080902,-0.77667236,0.06781006,1
1.3257904,2.4873962,8.03598,0.3815918,-0.9268799,-0.11009216,1
1.2970734,2.317398,8.342438,0.44551086,-0.99505615,-0.28266907,1
1.1151123,2.1402283,8.373566,0.47427368,-0.9918518,-0.39239502,1
1.0025787,1.9558716,8.239487,0.47001648,-0.89704895,-0.5404663,1
0.71287537,1.6159058,7.899521,0.4007721,-0.7500458,-0.6214142,1
0.45669556,1.4411316,7.5308075,0.29211426,-0.5593567,-0.66722107,1
0.37051392,1.280716,7.097458,0.14511108,-0.36547852,-0.697052,1
0.028137207,1.273529,6.5036926,-0.03704834,-0.20887756,-0.7173004,1
-0.27592468,1.249588,6.324127,-0.2256012,-0.12792969,-0.7247467,1
-0.79067993,1.1226959,6.6545258,-0.3736725,-0.12046814,-0.70451355,1
-0.85531616,1.0221405,7.090271,-0.443985,-0.14602661,-0.66189575,1
-0.7667389,0.933548,7.36322,-0.45144653,-0.1641388,-0.61183167,1
-0.80503845,0.739624,7.703186,-0.40457153,-0.17906189,-0.5532379,1
-0.759552,0.7683563,7.7438965,-0.3236084,-0.19822693,-0.4893341,1
-0.66378784,0.81144714,7.8588104,-0.23092651,-0.20994568,-0.42648315,1
-0.467453,0.9934082,7.8947296,-0.13398743,-0.1875763,-0.35830688,1
-0.35733032,1.1825562,7.583481,-0.045578003,-0.14283752,-0.31143188,1
-0.25198364,1.3860626,7.0926666,0.005554199,-0.09384155,-0.27841187,1
-0.2112732,1.4363403,6.944229,0.0076904297,-0.065078735,-0.26669312,1
-0.10354614,1.7332153,6.118225,-0.02532959,-0.055480957,-0.26242065,1
-0.053268433,2.0588226,5.6178436,-0.14465332,-0.039505005,-0.25497437,1
-0.18255615,2.183319,5.3880005,-0.2735443,-0.02671814,-0.25390625,1
-0.36212158,2.3078308,5.5412292,-0.3896637,-0.06719971,-0.2507019,1
-0.37887573,2.2551575,6.005707,-0.46955872,-0.13218689,-0.23472595,1
-0.3549347,2.1450195,6.5779114,-0.49298096,-0.16946411,-0.20384216,1
-0.19691467,2.221634,6.8939514,-0.4674225,-0.16946411,-0.17720032,1
0.15982056,2.3437347,7.059143,-0.42268372,-0.15455627,-0.16548157,1
0.24362183,2.5209045,7.162094,-0.38220215,-0.13858032,-0.18359375,1
0.1717987,2.7866669,7.3775787,-0.34172058,-0.10874939,-0.21235657,1
-0.07241821,2.8752441,7.4685516,-0.30444336,-0.046966553,-0.25177002,1
-0.40760803,2.8944092,7.5930634,-0.26075745,0.063827515,-0.28053284,1
-0.91038513,2.9015808,7.4877167,-0.21495056,0.20869446,-0.2730713,1
-1.324585,2.9901733,7.3296967,-0.17340088,0.39405823,-0.20170593,1
-1.6597748,3.2152252,7.2387085,-0.15530396,0.52827454,-0.106903076,1
-1.7698975,3.7227936,7.492508,-0.15423584,0.6348114,-0.011016846,1
-1.7124481,4.527252,8.081482,-0.16169739,0.70085144,0.047561646,1
-1.6166687,5.427475,9.446167,-0.16275024,0.75730896,0.120010376,1
-1.4347229,6.002075,10.60257,-0.13612366,0.7424011,0.14343262,1
-1.0037537,6.550354,12.458069,-0.08392334,0.7125702,0.12852478,1
-0.6733551,6.938217,14.629623,0.0566864,0.6763458,0.028396606,1
-0.69729614,7.012436,16.580887,0.19836426,0.7189636,-0.08879089,1
-1.3197937,6.9118805,18.216125,0.3730774,0.82336426,-0.171875,1
-2.2272034,6.447403,18.996643,0.5818634,0.97888184,-0.1676178,1
-3.1992493,5.7506866,18.618362,0.7810669,1.1301575,-0.057891846,1
-4.0539703,4.848068,17.418854,0.91955566,1.2068481,0.1530304,1
-4.56633,4.6756897,16.662292,0.9951935,1.2079163,0.44703674,1
-4.748291,4.5607758,15.40773,1.0346069,1.1578522,0.7889862,1
-4.492111,4.551193,14.663132,1.0410004,1.0577087,1.120285,1
-3.3931732,4.522461,13.674332,1.0282135,0.9213562,1.3855438,1
-1.9949646,4.522461,12.8315735,0.99305725,0.7509155,1.548523,1
-0.50816345,4.5607758,12.312027,0.94299316,0.5644989,1.5943298,1
0.6865387,4.5440063,11.885864,0.89398193,0.3961792,1.5336151,1
1.8597107,4.436264,11.17717,0.8279419,0.26835632,1.3855438,1
2.3074188,4.4865417,10.683975,0.69584656,0.17034912,1.1618347,1
2.8269653,4.649353,9.953735,0.49238586,0.110702515,0.8912506,1
2.7790833,4.7187805,9.711929,0.21115112,0.0819397,0.56954956,1
2.1087036,4.522461,9.731079,-0.10096741,0.07980347,0.2584839,1
1.5436707,3.6749115,10.245834,-0.30444336,0.12774658,0.080581665,1
1.5364838,2.324585,10.561874,-0.56222534,0.3184204,-0.14524841,1
1.6705627,1.359726,10.727066,-0.6921997,0.49206543,-0.30610657,1
1.5532532,0.5887909,11.019165,-0.7433319,0.6390686,-0.46694946,1
1.3305817,0.124313354,11.586578,-0.70817566,0.78074646,-0.6086426,1
1.1510162,-0.1438446,11.885864,-0.6016388,0.9437256,-0.7215576,1
0.9930115,-0.5245209,11.794876,-0.4674225,1.1439972,-0.80252075,1
1.08638,-0.8597107,10.7127075,-0.35557556,1.282486,-0.85684204,1
1.4479065,-1.1877136,9.479691,-0.301239,1.2100525,-0.8877411,1
1.9554749,-1.3600922,8.76622,-0.27033997,0.85850525,-0.9303436,1
2.501358,-1.3170013,8.809311,-0.21388245,0.2939148,-1.0102386,1
2.750351,-1.2044678,9.462921,-0.110565186,-0.34524536,-1.1412659,1
2.6426086,-1.1039124,10.408646,0.0524292,-0.89598083,-1.3213043,1
2.2786865,-1.2068634,11.169998,0.2527008,-1.2411194,-1.493866,1
1.9937744,-1.6066895,11.203506,0.44869995,-1.3465881,-1.6025238,1
1.6633759,-1.937088,10.664825,0.58932495,-1.2762756,-1.6408844,1
1.3497467,-1.9394836,9.630524,0.63938904,-1.0834656,-1.601471,1
1.08638,-1.6689453,8.316101,0.5776062,-0.8096924,-1.5119781,1
1.0265198,-1.1230621,6.9609833,0.39863586,-0.55722046,-1.3990631,1
1.0432892,-0.23242188,6.039215,0.0716095,-0.42939758,-1.3010559,1
1.1270752,0.6965332,5.7638855,-0.14144897,-0.4336548,-1.2872162,1
1.2300262,1.4147949,6.094284,-0.38539124,-0.5550995,-1.3213043,1
1.4239655,1.9223633,6.896347,-0.5430603,-0.80223083,-1.4182434,1
1.5293121,2.1234741,8.158096,-0.5845947,-1.1750793,-1.6089172,1
1.462265,2.0157318,9.379135,-0.5046997,-1.425415,-1.7772369,1
1.3449554,1.6326599,10.298508,-0.36515808,-1.6235504,-1.9082642,1
1.2898865,1.1825562,10.90184,-0.20323181,-1.7822876,-2.0009308,1
1.1917267,0.8138428,11.205902,-0.12760925,-1.8270264,-2.0275726,1
0.7440033,0.41879272,11.409409,0.0716095,-1.8131714,-2.033966,1
0.33459473,0.27993774,11.160416,0.14511108,-1.697052,-1.9508667,1
-0.050872803,0.28952026,10.774948,0.16748047,-1.568161,-1.8400879,1
0.22207642,0.5528717,10.956909,0.19943237,-1.2123566,-1.6547241,1
0.2412262,0.9239807,9.4366,0.17173767,-1.0365906,-1.5279541,1
-0.14424133,1.6685791,8.917053,0.09609985,-1.0035706,-1.4427338,1
-0.055648804,2.111496,9.537155,-0.006164551,-1.0035706,-1.3415375,1
0.41360474,2.2743073,10.351181,0.010879517,-0.9503021,-1.3298187,1
0.7463989,2.1952972,10.88269,0.10888672,-0.87786865,-1.3734894,1
0.79667664,2.1019287,10.925781,0.23884583,-0.7585602,-1.4384766,1
0.53570557,1.8170166,10.607361,0.34431458,-0.578537,-1.4640503,1
0.2699585,1.6542053,9.776566,0.39224243,-0.37399292,-1.428894,1
0.21968079,1.6901245,9.024796,0.3815918,-0.17478943,-1.3639069,1
0.27713013,1.8529205,8.620163,0.33685303,0.009490967,-1.3010559,1
0.23883057,2.1641693,8.143723,0.29743958,0.15756226,-1.2478027,1
0.3609314,2.5903473,7.8157196,0.27293396,0.26409912,-1.2190399,1
0.45191956,2.8536987,7.636154,0.2803955,0.32695007,-1.2115784,1
0.52134705,2.985382,7.3727875,0.3027649,0.3418579,-1.2211609,1
0.5812073,3.1218567,7.2770233,0.33898926,0.3130951,-1.2456665,1
0.4543152,3.33255,7.0759125,0.37413025,0.25663757,-1.2776184,1
0.34178162,3.4067688,6.944229,0.39544678,0.17781067,-1.3053131,1
0.19334412,3.5073242,6.939438,0.40396118,0.087265015,-1.3276978,1
0.17419434,3.5647736,7.0759125,0.39437866,0.009490967,-1.3415375,1
0.26756287,3.5719604,7.255478,0.37094116,-0.045898438,-1.3468628,1
0.3537445,3.684494,7.5236206,0.33366394,-0.08744812,-1.3617859,1
0.32263184,3.8018036,7.959366,0.29530334,-0.098098755,-1.3745575,1
0.11433411,3.7227936,8.533981,0.28678894,-0.10661316,-1.3798828,1
-0.10594177,3.5887299,9.04155,0.31022644,-0.107681274,-1.3660431,1
-0.25198364,3.399582,9.494049,0.34431458,-0.08531189,-1.3244934,1
-0.36689758,3.2798767,9.745438,0.38905334,-0.023529053,-1.2776184,1
-0.57040405,3.2391663,9.747833,0.41781616,0.0904541,-1.1828156,1
-0.6183014,3.2367706,9.664047,0.4103546,0.16395569,-1.1135712,1
-0.71406555,3.241562,9.611374,0.36561584,0.25982666,-1.0144958,1
-0.8888397,3.2032623,9.896286,0.32299805,0.32907104,-0.8504486,1
-0.9558716,3.1960754,10.442154,0.33898926,0.34399414,-0.7386017,1
-0.84814453,3.234375,10.880295,0.4103546,0.35250854,-0.57881165,1
-0.44111633,3.399582,11.0095825,0.56907654,0.2949829,-0.39344788,1
0.37530518,3.5647736,11.110138,0.68626404,0.20336914,-0.3167572,1
1.2324219,3.8927917,11.294495,0.89930725,-0.01499939,-0.24751282,1
2.0368805,4.139389,11.445328,1.0122375,-0.16734314,-0.25497437,1
2.6282501,3.9957428,11.88826,1.1634979,-0.4155426,-0.31355286,1
2.7886505,3.744339,12.319214,1.340332,-0.70529175,-0.4456482,1
2.688095,3.222412,12.922546,1.4383392,-0.80010986,-0.5180969,1
2.2355957,2.9039764,13.391815,1.5949249,-0.72979736,-0.58413696,1
1.6825409,2.7220154,13.037476,1.6758881,-0.45069885,-0.5628357,1
1.4455109,3.0739746,11.720657,1.6694946,-0.21954346,-0.53300476,1
1.699295,3.5216827,10.502014,1.4777527,-0.048034668,-0.5575104,1
2.3936157,3.9694061,8.957748,1.1517792,-0.17053223,-0.7066345,1
3.1046906,4.2950134,8.320892,0.7395172,-0.52420044,-0.97935486,1
3.545227,4.158539,9.228302,0.34324646,-0.95669556,-1.3426056,1
3.4398804,3.5647736,10.521164,0.048171997,-1.3167572,-1.7175751,1
3.1837006,2.1498108,12.589752,-0.10522461,-1.50531,-2.0286407,1
